participant,block_count,trial_count,trial_aborted,soa,congruent,task,prime_presence,prime_direction,mask_direction,stim_position,mask_answer,mask_rt,prime_answer,prime_rt,mask_accuracy,prime_accuracy
001,0,0,TRUE,0.025,TRUE,mask,absent,left,left,top,None,None,None,None,None,None
001,0,1,FALSE,0.025,TRUE,mask,absent,left,left,bottom,left,0.2836548000000221,absent,2.416232200000195,True,True
001,0,2,TRUE,0.05,TRUE,mask,present,left,left,top,None,None,None,None,None,None
001,0,3,FALSE,0.025,FALSE,mask,absent,left,right,top,right,0.44741849999991246,absent,2.003461600000037,True,True
001,0,4,TRUE,0.075,FALSE,mask,present,left,right,top,None,None,None,None,None,None
001,0,5,FALSE,0.075,TRUE,mask,absent,left,left,bottom,left,0.28373119999992014,absent,1.6364690000000337,True,True
001,0,6,FALSE,0.05,FALSE,mask,present,right,left,bottom,left,0.2618190999999115,present,3.0113834999999654,True,True
001,0,7,FALSE,0.075,FALSE,mask,present,right,left,top,right,0.2525706999999784,absent,2.947909299999992,False,False
001,0,8,FALSE,0.05,FALSE,mask,absent,left,right,bottom,right,0.29261109999993096,absent,2.6908350999999584,True,True
001,0,9,FALSE,0.0375,FALSE,mask,present,left,right,top,right,0.33423149999998714,present,0.8689460000000508,True,True
001,0,10,TRUE,0.0125,FALSE,mask,present,left,right,top,None,None,None,None,None,None
001,0,11,FALSE,0.05,TRUE,mask,absent,left,left,bottom,left,0.22825510000006943,absent,1.2201516999998603,True,True
001,0,12,FALSE,0.075,TRUE,mask,present,left,left,bottom,left,0.2321755000000394,present,0.8677759999998216,True,True
001,0,13,FALSE,0.0125,FALSE,mask,present,left,right,top,right,0.3620797000000948,present,2.0049587999999403,True,True
001,0,14,FALSE,0.0625,TRUE,mask,absent,left,left,top,left,0.33569660000011936,absent,1.3951649999999063,True,True
001,0,15,FALSE,0.025,TRUE,mask,present,right,right,bottom,right,0.2858850000000075,present,0.7731330999999955,True,True
001,0,16,FALSE,0.0625,TRUE,mask,present,left,left,top,left,0.20682479999982206,present,1.2031899999999496,True,True
001,0,17,FALSE,0.05,FALSE,mask,present,right,left,bottom,left,0.30294630000003053,present,0.8194908000000396,True,True
001,0,18,FALSE,0.0375,TRUE,mask,absent,left,left,bottom,left,0.3359616999998707,absent,0.6445133000001988,True,True
001,0,19,FALSE,0.0125,TRUE,mask,absent,left,left,bottom,left,0.5280247999999119,absent,1.1882272000000285,True,True
001,0,20,FALSE,0.05,TRUE,mask,present,left,left,bottom,left,0.23364229999992858,present,0.5775395999999091,True,True
001,0,21,FALSE,0.0375,TRUE,mask,absent,left,left,bottom,left,0.4393737999998848,absent,0.947099900000012,True,True
001,0,22,FALSE,0.05,TRUE,mask,present,left,left,bottom,left,0.21754009999995105,present,0.4981235000000197,True,True
001,0,23,FALSE,0.05,TRUE,mask,present,right,right,bottom,right,0.3216265000000931,present,1.0266836000000694,True,True
001,0,24,FALSE,0.0625,TRUE,mask,present,right,right,bottom,right,0.28196150000007947,present,0.4833492000000206,True,True
001,0,25,FALSE,0.0125,TRUE,mask,present,left,left,top,left,0.29705139999987296,absent,1.4584317999999712,True,False
001,0,26,FALSE,0.075,FALSE,mask,present,left,right,bottom,right,0.3291712999998708,present,0.561900999999807,True,True
001,0,27,FALSE,0.075,FALSE,mask,absent,left,right,bottom,right,0.4738635000001068,absent,0.8369012999999086,True,True
001,0,28,FALSE,0.025,TRUE,mask,present,left,left,top,left,0.5232075999999779,absent,1.1075690000000122,True,False
001,0,29,FALSE,0.0125,FALSE,mask,present,left,right,bottom,right,0.3281747999999425,present,1.620388400000138,True,True
001,0,30,FALSE,0.0625,FALSE,mask,absent,left,right,bottom,right,0.3591039999998884,absent,0.8186534999999822,True,True
001,0,31,FALSE,0.05,TRUE,mask,absent,left,left,top,left,0.22872960000017883,present,1.476368999999977,True,False
001,0,32,FALSE,0.075,TRUE,mask,present,right,right,bottom,right,0.5347643000000062,present,0.8506045999999969,True,True
001,0,33,FALSE,0.025,TRUE,mask,present,right,right,bottom,left,0.16539970000007997,absent,2.178916599999866,False,False
001,0,34,FALSE,0.0625,TRUE,mask,present,left,left,top,left,0.32020189999980175,present,1.028096499999947,True,True
001,0,35,FALSE,0.0625,FALSE,mask,absent,left,right,bottom,right,0.3098433999998633,absent,0.5314456999999493,True,True
001,0,36,FALSE,0.025,TRUE,mask,absent,left,left,top,left,0.22910049999995863,absent,1.4933406999998624,True,True
001,0,37,FALSE,0.0625,TRUE,mask,present,right,right,bottom,right,0.18805169999995996,present,0.5625091000001703,True,True
001,0,38,FALSE,0.0375,TRUE,mask,absent,left,left,top,left,0.2482978999998977,absent,0.9957014999999956,True,True
001,0,39,FALSE,0.0625,FALSE,mask,present,left,right,top,right,0.3364650000000893,present,0.5643844000001081,True,True
001,0,40,TRUE,0.025,TRUE,mask,absent,left,left,bottom,None,None,None,None,None,None
001,0,41,FALSE,0.05,TRUE,mask,present,right,right,top,right,0.2124684000000343,present,0.5937976000000162,True,True
001,0,42,FALSE,0.0125,TRUE,mask,present,right,right,top,right,0.22047500000007858,absent,0.7250571000001855,True,False
001,0,43,FALSE,0.075,TRUE,mask,present,right,right,top,right,0.17749830000002476,present,0.5318247000000156,True,True
001,0,44,FALSE,0.025,FALSE,mask,present,right,left,top,left,0.32325799999989613,absent,0.6910024999999678,True,False
001,0,45,FALSE,0.025,FALSE,mask,present,right,left,bottom,left,0.27547600000002603,absent,0.3892169000000649,True,False
001,0,46,FALSE,0.0375,FALSE,mask,absent,left,right,bottom,right,0.3008884000000762,absent,0.4181266999999025,True,True
001,0,47,FALSE,0.05,FALSE,mask,absent,left,right,top,right,0.3124927999999727,absent,0.9298766000001706,True,True
001,0,48,FALSE,0.0125,FALSE,mask,present,right,left,bottom,left,0.3046486000000641,present,1.1543663999998444,True,True
001,0,49,FALSE,0.0375,TRUE,mask,present,right,right,bottom,right,0.25729969999997593,present,1.4765548000000308,True,True
001,0,50,FALSE,0.0375,FALSE,mask,absent,left,right,top,right,0.5730387000000974,absent,0.7701279000000341,True,True
001,0,51,FALSE,0.025,FALSE,mask,present,left,right,bottom,right,0.4152615999998943,absent,0.40465919999996913,True,False
001,0,52,FALSE,0.075,TRUE,mask,present,left,left,top,right,0.4625214000000142,present,0.8348094999998921,False,True
001,0,53,FALSE,0.025,TRUE,mask,present,left,left,top,left,0.5544339000000491,absent,1.0929685999999492,True,False
001,0,54,FALSE,0.05,FALSE,mask,present,left,right,top,right,0.5273506999999427,present,0.7720941000000039,True,True
001,0,55,FALSE,0.0125,FALSE,mask,present,right,left,bottom,left,0.2899099999999635,absent,0.6916272000000845,True,False
001,0,56,FALSE,0.0125,FALSE,mask,absent,left,right,bottom,right,0.4979502000001048,absent,0.5960023000000092,True,True
001,0,57,FALSE,0.075,FALSE,mask,present,right,left,top,left,0.43087649999984023,present,1.0255352000001494,True,True
001,0,58,FALSE,0.0625,TRUE,mask,absent,left,left,top,left,0.3483048999999028,absent,1.0436859000001277,True,True
001,0,59,FALSE,0.0125,FALSE,mask,present,left,right,bottom,right,0.2739725000001272,present,0.5490182000000914,True,True
001,0,60,FALSE,0.025,TRUE,mask,absent,left,left,top,left,0.263364700000011,absent,1.9220937999998569,True,True
001,0,61,FALSE,0.0625,FALSE,mask,present,left,right,bottom,left,0.21541570000022148,present,1.5069275999999263,False,True
001,0,62,FALSE,0.05,FALSE,mask,absent,left,right,bottom,right,0.290633299999854,absent,1.269030900000189,True,True
001,0,63,FALSE,0.05,TRUE,mask,present,left,left,top,left,0.24528559999998834,present,0.5486642999999276,True,True
001,0,64,FALSE,0.0125,TRUE,mask,absent,left,left,top,left,0.507856400000037,absent,1.0282003999998324,True,True
001,0,65,FALSE,0.0375,FALSE,mask,present,right,left,top,left,0.5186441000000741,present,0.9631819999999607,True,True
001,0,66,FALSE,0.0375,FALSE,mask,present,right,left,top,left,0.23204630000009274,present,0.5163622000000032,True,True
001,0,67,FALSE,0.0125,TRUE,mask,present,left,left,bottom,left,0.30923100000018167,absent,0.4974386000001232,True,False
001,0,68,FALSE,0.0625,FALSE,mask,absent,left,right,top,right,0.37943879999988894,absent,0.7410036000001128,True,True
001,0,69,FALSE,0.0375,FALSE,mask,present,left,right,bottom,left,0.27827830000001086,present,1.5392970999998852,False,True
001,0,70,FALSE,0.0125,TRUE,mask,present,right,right,top,right,0.3633600999999089,present,2.3381223999999747,True,True
001,0,71,FALSE,0.075,FALSE,mask,present,left,right,top,right,0.52350760000013,present,0.739204299999983,True,True
001,0,72,FALSE,0.0375,TRUE,mask,present,right,right,top,right,0.36551009999993767,absent,0.40354600000000573,True,False
001,0,73,FALSE,0.075,TRUE,mask,present,right,right,top,right,0.40157460000000356,present,0.38545219999991787,True,True
001,0,74,TRUE,0.05,FALSE,mask,absent,left,right,top,None,None,None,None,None,None
001,0,75,FALSE,0.0125,TRUE,mask,present,right,right,bottom,right,0.33223320000001877,absent,1.0449612999998408,True,False
001,0,76,FALSE,0.05,FALSE,mask,present,left,right,top,right,0.34420760000011796,present,0.6751056999999037,True,True
001,0,77,FALSE,0.0375,TRUE,mask,present,right,right,bottom,right,0.29226340000013806,present,0.5938049999999748,True,True
001,0,78,FALSE,0.075,FALSE,mask,present,left,right,bottom,right,0.40488059999984216,present,1.2262685999999121,True,True
001,0,79,FALSE,0.0375,TRUE,mask,present,left,left,top,left,0.3921772000001056,present,1.1085657999999512,True,True
001,0,80,FALSE,0.0625,TRUE,mask,present,left,left,bottom,left,0.3418670999999449,present,0.6761948999999277,True,True
001,0,81,FALSE,0.025,TRUE,mask,absent,left,left,bottom,left,0.3128308999998808,absent,0.4850773999999092,True,True
001,0,82,FALSE,0.075,TRUE,mask,absent,left,left,bottom,left,0.2947343999999248,absent,0.30830379999997604,True,True
001,0,83,FALSE,0.0125,TRUE,mask,absent,left,left,bottom,left,0.3235050999999203,absent,0.17922589999989214,True,True
001,0,84,FALSE,0.0625,TRUE,mask,present,right,right,top,right,0.3826007000000118,present,1.2980159000001095,True,True
001,0,85,FALSE,0.0375,TRUE,mask,absent,left,left,top,left,0.354712999999947,absent,0.43378389999998035,True,True
001,0,86,FALSE,0.075,FALSE,mask,absent,left,right,top,right,0.35113670000009733,absent,0.33902549999993425,True,True
001,0,87,FALSE,0.05,TRUE,mask,absent,left,left,top,left,0.30003999999985353,absent,1.4134397000000263,True,True
001,0,88,FALSE,0.075,FALSE,mask,absent,left,right,bottom,right,0.2944941000000654,absent,0.3080535999999938,True,True
001,0,89,FALSE,0.0125,FALSE,mask,present,left,right,top,right,0.3844403999999031,absent,0.9303167999999005,True,False
001,0,90,FALSE,0.0375,FALSE,mask,present,right,left,bottom,left,0.38792949999992743,present,1.9251400999999078,True,True
001,0,91,FALSE,0.05,FALSE,mask,present,left,right,bottom,right,0.6079584000001432,present,2.0814900000000307,True,True
001,0,92,FALSE,0.05,TRUE,mask,present,right,right,top,right,0.362902700000177,present,0.44567540000002737,True,True
001,0,93,FALSE,0.0125,FALSE,mask,absent,left,right,bottom,right,0.35186720000001515,absent,0.2757520000000113,True,True
001,0,94,FALSE,0.0125,TRUE,mask,absent,left,left,top,left,0.36046759999999267,absent,2.866671199999928,True,True
001,0,95,FALSE,0.075,FALSE,mask,present,right,left,bottom,right,0.2263473000000431,present,1.5675403000000188,False,True
001,0,96,FALSE,0.025,FALSE,mask,present,left,right,top,right,0.40207969999983106,present,1.107945799999925,True,True
001,0,97,FALSE,0.05,FALSE,mask,present,right,left,top,left,0.18805590000010852,absent,1.8133040000000165,True,False
001,0,98,FALSE,0.0375,TRUE,mask,present,left,left,bottom,left,0.4626981999999771,present,2.4521793999999772,True,True
001,0,99,FALSE,0.05,FALSE,mask,present,right,left,top,left,0.40241040000000794,present,0.546546699999908,True,True
001,0,100,FALSE,0.0625,FALSE,mask,present,right,left,top,left,0.36448440000003757,present,0.6105405000000701,True,True
001,0,101,FALSE,0.05,FALSE,mask,present,left,right,bottom,right,0.37501800000018193,present,1.073259300000018,True,True
001,0,102,FALSE,0.0125,TRUE,mask,present,right,right,bottom,right,0.3153666000000612,absent,0.35608079999997244,True,False
001,0,103,FALSE,0.0125,TRUE,mask,present,left,left,top,left,0.37546210000004976,present,2.229170900000099,True,True
001,0,104,FALSE,0.0625,TRUE,mask,present,right,right,top,right,0.3504871000000094,present,1.12516410000012,True,True
001,0,105,FALSE,0.0375,TRUE,mask,present,left,left,top,left,0.3415926000000127,present,0.4047107000001233,True,True
001,0,106,TRUE,0.075,FALSE,mask,absent,left,right,top,None,None,None,None,None,None
001,0,107,FALSE,0.0625,FALSE,mask,absent,left,right,top,right,0.387242199999946,absent,0.7564571000000342,True,True
001,0,108,FALSE,0.025,TRUE,mask,present,left,left,bottom,left,0.566414800000075,absent,2.2764483999999356,True,False
001,0,109,FALSE,0.025,FALSE,mask,present,right,left,top,left,0.3404846000000816,present,0.4997863999999481,True,True
001,0,110,FALSE,0.025,FALSE,mask,absent,left,right,bottom,right,0.3364518999999291,absent,0.8043443000001389,True,True
001,0,111,FALSE,0.025,FALSE,mask,absent,left,right,bottom,right,0.4433252999999695,absent,0.8035325999999259,True,True
001,0,112,FALSE,0.05,TRUE,mask,absent,left,left,bottom,left,0.3506548999998813,present,1.0447190999998384,True,False
001,0,113,FALSE,0.0375,FALSE,mask,present,right,left,bottom,left,0.36597180000012486,present,1.8428654000001643,True,True
001,0,114,FALSE,0.0125,TRUE,mask,present,left,left,bottom,left,0.48522509999997965,present,0.7864105000001018,True,True
001,0,115,FALSE,0.075,TRUE,mask,present,left,left,bottom,left,0.3940382000000682,present,0.37100710000004256,True,True
001,0,116,FALSE,0.05,TRUE,mask,present,left,left,top,left,0.4794408000000203,absent,0.5636504000001423,True,False
001,0,117,FALSE,0.0625,TRUE,mask,absent,left,left,bottom,left,0.36013900000011745,absent,0.8983662999999069,True,True
001,0,118,FALSE,0.0125,FALSE,mask,absent,left,right,top,right,0.2737907999999152,absent,1.1555307000000994,True,True
001,0,119,FALSE,0.0375,TRUE,mask,present,left,left,bottom,left,0.42013269999984004,present,0.6593451999999616,True,True
001,0,120,FALSE,0.0625,FALSE,mask,present,right,left,top,left,0.45248639999999796,present,0.35436470000013287,True,True
001,0,121,FALSE,0.0625,TRUE,mask,present,left,left,bottom,left,0.20975309999994352,present,0.3532895999999255,True,True
001,0,122,FALSE,0.025,FALSE,mask,present,left,right,top,right,0.34796410000012656,absent,1.0443745000000035,True,False
001,0,123,FALSE,0.025,FALSE,mask,present,left,right,bottom,right,0.345624399999906,absent,0.46853809999993246,True,False
001,0,124,FALSE,0.0625,TRUE,mask,absent,left,left,bottom,left,0.3630322999999862,absent,0.8205827000001591,True,True
001,0,125,FALSE,0.075,TRUE,mask,absent,left,left,top,left,0.28854290000003857,absent,0.42109499999992295,True,True
001,0,126,TRUE,0.075,FALSE,mask,present,left,right,top,None,None,None,None,None,None
001,0,127,TRUE,0.0625,FALSE,mask,present,right,left,bottom,None,None,None,None,None,None
001,0,128,FALSE,0.0375,FALSE,mask,present,left,right,top,right,0.3665217999998731,present,0.709247699999878,True,True
001,0,129,FALSE,0.075,FALSE,mask,present,right,left,bottom,left,0.43856720000007954,present,0.6582762999998977,True,True
001,0,130,FALSE,0.0375,FALSE,mask,absent,left,right,bottom,right,0.41726870000002236,absent,0.3224827000001369,True,True
001,0,131,FALSE,0.0375,FALSE,mask,absent,left,right,top,right,0.4288985999999113,absent,0.546227700000145,True,True
001,0,132,FALSE,0.025,FALSE,mask,present,right,left,bottom,left,0.370271399999865,present,0.7217662000000473,True,True
001,0,133,FALSE,0.05,FALSE,mask,absent,left,right,top,right,0.4850779999999304,absent,0.5323084999999992,True,True
001,0,134,FALSE,0.0125,FALSE,mask,absent,left,right,top,right,0.32312290000004396,absent,0.4848613999999998,True,True
001,0,135,FALSE,0.0125,FALSE,mask,present,right,left,top,left,0.3333608999998887,present,0.6127607999999327,True,True
001,0,136,FALSE,0.0375,FALSE,mask,present,left,right,bottom,right,0.37658920000012586,absent,0.5947995999999875,True,False
001,0,137,FALSE,0.075,FALSE,mask,absent,left,right,top,right,0.37610610000001543,absent,1.1216741999999158,True,True
001,0,138,FALSE,0.075,FALSE,mask,present,left,right,top,right,0.45994820000009895,present,0.4041422000000239,True,True
001,0,139,FALSE,0.0125,FALSE,mask,present,right,left,top,left,0.25382599999989,absent,0.8683945000000222,True,False
001,0,140,FALSE,0.025,TRUE,mask,present,left,left,bottom,left,0.27784650000012334,absent,0.38808389999985593,True,False
001,0,141,FALSE,0.075,TRUE,mask,present,right,right,bottom,right,0.2712615000000369,present,1.2183457999999519,True,True
001,0,142,TRUE,0.025,TRUE,mask,present,right,right,top,None,None,None,None,None,None
001,0,143,FALSE,0.0625,FALSE,mask,present,right,left,bottom,left,0.38394130000006044,present,0.8206572999999935,True,True
001,0,144,FALSE,0.025,TRUE,mask,present,right,right,top,right,0.31978110000000015,absent,2.068360900000016,True,False
001,0,145,FALSE,0.0625,FALSE,mask,present,left,right,top,right,0.4676285000000462,present,0.5775346000000354,True,True
001,0,146,TRUE,0.05,TRUE,mask,present,right,right,bottom,None,None,None,None,None,None
001,0,147,FALSE,0.025,TRUE,mask,present,right,right,top,right,0.3066524999999274,absent,2.227111500000092,True,False
001,0,148,FALSE,0.0375,TRUE,mask,present,right,right,top,right,0.3880587999999534,present,0.5778372000002037,True,True
001,0,149,FALSE,0.0625,FALSE,mask,present,left,right,bottom,right,0.3256354000000101,present,0.4025117000001046,True,True
001,0,150,FALSE,0.075,TRUE,mask,absent,left,left,top,left,0.34201999999982036,absent,0.5797437999999602,True,True
001,0,151,FALSE,0.025,FALSE,mask,absent,left,right,top,right,0.3884662999998909,absent,0.5318005999999968,True,True
001,0,152,FALSE,0.075,TRUE,mask,present,left,left,top,left,0.28502949999983684,present,0.578364400000055,True,True
001,0,153,FALSE,0.05,TRUE,mask,present,right,right,bottom,right,0.31710320000001957,absent,0.9325708999999733,True,False
001,0,154,FALSE,0.0625,FALSE,mask,present,right,left,bottom,left,0.4486778000000413,present,0.3532208999999966,True,True
001,1,155,FALSE,0.0125,FALSE,mask,present,right,left,top,left,0.26190840000003845,present,1.1951466000000437,True,True
001,1,156,FALSE,0.0125,TRUE,mask,present,left,left,bottom,left,0.2614360999998553,present,0.4349948999999924,True,True
001,1,157,FALSE,0.075,TRUE,mask,present,right,right,bottom,right,0.31548209999982646,present,0.8682275000001027,True,True
001,1,158,FALSE,0.0125,TRUE,mask,present,left,left,bottom,left,0.24285250000002634,absent,0.4177468000000317,True,False
001,1,159,FALSE,0.0375,TRUE,mask,absent,left,left,bottom,left,0.37125190000006114,absent,1.23715059999995,True,True
001,1,160,FALSE,0.025,TRUE,mask,present,left,left,bottom,left,0.25551800000016556,present,0.36994160000017473,True,True
001,1,161,FALSE,0.05,TRUE,mask,present,left,left,bottom,left,0.25430980000010095,present,0.40506219999997484,True,True
001,1,162,FALSE,0.05,TRUE,mask,present,right,right,top,right,0.5317305000000943,absent,0.579758800000036,True,False
001,1,163,FALSE,0.05,TRUE,mask,present,left,left,top,left,0.4270876999999018,absent,0.49863490000007005,True,False
001,1,164,FALSE,0.0375,FALSE,mask,present,left,right,bottom,right,0.3214722999998685,absent,0.44986530000005587,True,False
001,1,165,FALSE,0.05,TRUE,mask,absent,left,left,bottom,left,0.4869142000000011,absent,1.107411399999819,True,True
001,1,166,FALSE,0.0375,TRUE,mask,present,right,right,top,right,0.31133760000011534,absent,1.044232299999976,True,False
001,1,167,FALSE,0.025,FALSE,mask,present,left,right,bottom,right,0.3314980000000105,absent,0.3242165000001478,True,False
001,1,168,FALSE,0.0375,FALSE,mask,present,left,right,top,right,0.3777574000000641,present,0.6593033999999989,True,True
001,1,169,FALSE,0.075,FALSE,mask,present,right,left,top,left,0.36278619999984585,present,0.8043359000000692,True,True
001,1,170,TRUE,0.075,TRUE,mask,absent,left,left,bottom,None,None,None,None,None,None
001,1,171,FALSE,0.075,TRUE,mask,present,right,right,top,right,0.21895410000001903,present,0.6275293000001056,True,True
001,1,172,FALSE,0.05,FALSE,mask,present,left,right,bottom,right,0.39350390000004154,present,0.4510603999999603,True,True
001,1,173,FALSE,0.075,FALSE,mask,absent,left,right,bottom,right,0.3120590999999422,present,0.5781402000000071,True,False
001,1,174,FALSE,0.075,FALSE,mask,present,left,right,top,right,0.3861355999999887,present,0.8043459000000439,True,True
001,1,175,FALSE,0.0625,FALSE,mask,present,right,left,bottom,left,0.40018959999997605,present,1.3488538999999946,True,True
001,1,176,FALSE,0.0375,TRUE,mask,absent,left,left,bottom,left,0.26379719999999907,absent,0.6898396000001412,True,True
001,1,177,FALSE,0.0125,FALSE,mask,present,left,right,top,right,0.29246859999989283,absent,0.738025000000107,True,False
001,1,178,FALSE,0.0625,FALSE,mask,present,right,left,top,left,0.3261290000000372,present,1.3972238999999718,True,True
001,1,179,FALSE,0.025,FALSE,mask,present,left,right,top,right,0.46591349999994236,absent,0.34132399999998597,True,False
001,1,180,FALSE,0.0375,TRUE,mask,absent,left,left,top,left,0.2668496999999661,absent,0.7089184999999816,True,True
001,1,181,FALSE,0.0375,FALSE,mask,present,left,right,bottom,right,0.38457350000021506,present,0.5812924999997904,True,True
001,1,182,FALSE,0.0125,FALSE,mask,absent,left,right,top,right,0.43484909999983756,absent,0.40333480000003874,True,True
001,1,183,FALSE,0.05,FALSE,mask,present,right,left,bottom,right,0.3366707000000133,present,1.81682190000015,False,True
001,1,184,FALSE,0.0125,TRUE,mask,present,right,right,top,right,0.433371999999963,absent,2.945888800000148,True,False
001,1,185,FALSE,0.05,FALSE,mask,present,left,right,top,right,0.5619174000000839,present,1.4099452000000383,True,True
001,1,186,FALSE,0.025,TRUE,mask,present,right,right,bottom,right,0.353503499999988,absent,0.27672180000013213,True,False
001,1,187,FALSE,0.075,FALSE,mask,absent,left,right,bottom,right,0.6189070000000356,absent,0.7212851000001592,True,True
001,1,188,FALSE,0.0625,TRUE,mask,absent,left,left,bottom,left,0.5654210000000148,absent,1.12480400000004,True,True
001,1,189,FALSE,0.05,FALSE,mask,absent,left,right,bottom,right,0.3218664999999419,absent,0.2756036999999196,True,True
001,1,190,FALSE,0.05,TRUE,mask,present,right,right,bottom,right,0.24212760000000344,present,0.801756899999873,True,True
001,1,191,FALSE,0.0375,TRUE,mask,present,right,right,bottom,right,0.3021674999999959,absent,1.2833858999999848,True,False
001,1,192,FALSE,0.0625,FALSE,mask,absent,left,right,bottom,right,0.3679523999999219,present,0.8351999999999862,True,False
001,1,193,FALSE,0.0625,FALSE,mask,absent,left,right,top,right,0.3016613000002053,present,1.6355638,True,False
001,1,194,FALSE,0.05,FALSE,mask,present,right,left,top,left,0.45223729999997886,present,0.9787830999998732,True,True
001,1,195,FALSE,0.0625,TRUE,mask,absent,left,left,top,left,0.3112289000000601,absent,0.595455199999833,True,True
001,1,196,FALSE,0.05,FALSE,mask,present,right,left,bottom,left,0.4182742000000417,present,0.24165510000011636,True,True
001,1,197,FALSE,0.075,TRUE,mask,absent,left,left,top,left,0.3590199999998731,absent,0.3212507999999161,True,True
001,1,198,FALSE,0.0125,FALSE,mask,present,left,right,top,right,0.4150990999999067,absent,1.219823099999985,True,False
001,1,199,FALSE,0.0375,TRUE,mask,present,left,left,bottom,left,0.42471610000006876,present,1.1237791000000925,True,True
001,1,200,FALSE,0.0375,FALSE,mask,present,left,right,top,right,0.49119199999995544,present,0.7221332000001439,True,True
001,1,201,FALSE,0.0375,FALSE,mask,absent,left,right,bottom,right,0.3977078000000347,absent,0.24377049999998235,True,True
001,1,202,FALSE,0.0625,TRUE,mask,present,left,left,bottom,left,0.27362209999978404,present,0.6746944999999869,True,True
001,1,203,FALSE,0.075,TRUE,mask,present,right,right,bottom,right,0.4741664000000583,present,0.7892061999998532,True,True
001,1,204,FALSE,0.0375,FALSE,mask,present,right,left,top,left,0.350223700000015,absent,1.316903800000091,True,False
001,1,205,FALSE,0.075,FALSE,mask,present,left,right,bottom,right,0.4384712999999465,present,0.49751120000019,True,True
001,1,206,FALSE,0.05,FALSE,mask,present,left,right,top,right,0.46918440000013106,absent,3.6015976000001046,True,False
001,1,207,FALSE,0.05,TRUE,mask,present,right,right,top,right,0.31706209999993007,present,0.6422218999998677,True,True
001,1,208,FALSE,0.0625,FALSE,mask,present,left,right,top,right,0.5355552999999418,present,0.42008910000004107,True,True
001,1,209,FALSE,0.05,FALSE,mask,absent,left,right,bottom,right,0.41525479999995696,absent,2.5618247999998403,True,True
001,1,210,FALSE,0.025,FALSE,mask,present,right,left,top,left,0.38589329999990696,present,2.3064579000001686,True,True
001,1,211,FALSE,0.0625,TRUE,mask,present,right,right,top,right,0.3937238000000889,present,0.8832821000000877,True,True
001,1,212,FALSE,0.075,FALSE,mask,absent,left,right,top,right,0.549549099999922,absent,0.24492269999996097,True,True
001,1,213,FALSE,0.05,TRUE,mask,absent,left,left,bottom,left,0.4289558999998917,absent,1.9086606000000756,True,True
001,1,214,FALSE,0.075,TRUE,mask,absent,left,left,bottom,left,0.5456501000001026,absent,0.5958382000001166,True,True
001,1,215,FALSE,0.075,TRUE,mask,present,right,right,top,right,0.23799610000014582,present,0.43373369999994793,True,True
001,1,216,FALSE,0.025,TRUE,mask,present,right,right,bottom,right,0.3204077000000325,absent,0.2734813999998096,True,False
001,1,217,FALSE,0.025,FALSE,mask,absent,left,right,bottom,right,0.29068359999996574,absent,0.32158559999993486,True,True
001,1,218,FALSE,0.025,TRUE,mask,absent,left,left,top,left,0.40078029999995124,present,2.961328099999946,True,False
001,1,219,FALSE,0.0125,TRUE,mask,absent,left,left,top,left,0.4631984000000102,absent,0.27742190000003575,True,True
001,1,220,FALSE,0.075,FALSE,mask,present,right,left,bottom,right,0.2568387999999686,present,1.2995952000001125,False,True
001,1,221,TRUE,0.05,TRUE,mask,present,left,left,bottom,None,None,None,None,None,None
001,1,222,FALSE,0.0125,FALSE,mask,present,right,left,bottom,left,0.23751319999996667,present,0.6127246000000923,True,True
001,1,223,FALSE,0.0625,FALSE,mask,absent,left,right,top,right,0.3313686000001326,absent,0.24343079999994188,True,True
001,1,224,FALSE,0.0625,TRUE,mask,absent,left,left,bottom,left,0.2439864000000398,absent,0.35488020000002507,True,True
001,1,225,FALSE,0.0625,TRUE,mask,present,left,left,top,left,0.29090419999988626,present,0.25996230000009746,True,True
001,1,226,FALSE,0.05,FALSE,mask,present,right,left,top,left,0.29666169999995873,present,0.16139110000017354,True,True
001,1,227,FALSE,0.025,FALSE,mask,present,left,right,bottom,right,0.3911471999999776,present,1.8763311999998677,True,True
001,1,228,FALSE,0.025,FALSE,mask,absent,left,right,top,right,0.3614850999999817,absent,0.22904200000016317,True,True
001,1,229,FALSE,0.075,TRUE,mask,absent,left,left,bottom,left,0.39152969999986453,absent,1.3875696000000062,True,True
001,1,230,FALSE,0.0125,FALSE,mask,present,right,left,top,left,0.3289494000000559,present,0.6071825000001354,True,True
001,1,231,FALSE,0.0375,TRUE,mask,absent,left,left,top,left,0.29982479999989664,present,0.6285870000001523,True,False
001,1,232,FALSE,0.0375,FALSE,mask,present,right,left,bottom,left,0.45225890000006075,absent,0.770794799999976,True,False
001,1,233,FALSE,0.0375,FALSE,mask,absent,left,right,top,right,0.2942575999998098,absent,0.22915169999987484,True,True
001,1,234,FALSE,0.075,FALSE,mask,present,right,left,top,right,0.2505268999998407,present,0.30170429999998305,False,True
001,1,235,TRUE,0.0125,FALSE,mask,present,left,right,bottom,None,None,None,None,None,None
001,1,236,FALSE,0.0125,FALSE,mask,absent,left,right,bottom,right,0.49863669999990634,absent,1.3806974999999966,True,True
001,1,237,FALSE,0.05,TRUE,mask,present,left,left,top,left,0.2512773000000834,present,0.3253140000001622,True,True
001,1,238,FALSE,0.025,FALSE,mask,present,right,left,top,left,0.29385419999994156,present,1.5707574000000477,True,True
001,1,239,FALSE,0.05,FALSE,mask,absent,left,right,top,right,0.31905749999987165,absent,0.25967020000007324,True,True
001,1,240,TRUE,0.0625,TRUE,mask,present,right,right,top,None,None,None,None,None,None
001,1,241,FALSE,0.0375,TRUE,mask,present,left,left,top,left,0.4336820999999418,absent,1.1890223000000333,True,False
001,1,242,FALSE,0.0625,FALSE,mask,present,left,right,bottom,right,0.3277707999998256,present,0.27665830000000824,True,True
001,1,243,FALSE,0.0375,TRUE,mask,present,left,left,top,left,0.24151099999994585,present,0.7567621999999119,True,True
001,1,244,FALSE,0.0125,TRUE,mask,present,left,left,top,left,0.300255800000059,present,0.33747040000002926,True,True
001,1,245,FALSE,0.0125,FALSE,mask,absent,left,right,bottom,right,0.2733592999998109,absent,0.3717335000001185,True,True
001,1,246,FALSE,0.0625,TRUE,mask,present,right,right,bottom,right,0.22842399999990448,present,0.4178357999999207,True,True
001,1,247,FALSE,0.075,FALSE,mask,absent,left,right,top,right,0.5166957999999795,absent,0.4178882999999587,True,True
001,1,248,FALSE,0.075,TRUE,mask,present,left,left,bottom,left,0.2539421000001312,present,0.2284604000001309,True,True
001,1,249,FALSE,0.025,TRUE,mask,present,left,left,top,left,0.22815460000015264,present,0.2597398999998859,True,True
001,1,250,FALSE,0.025,TRUE,mask,absent,left,left,bottom,left,0.2587872999999945,absent,0.4691832000000886,True,True
001,1,251,FALSE,0.0125,TRUE,mask,present,right,right,bottom,right,0.30236869999998817,present,0.851590700000088,True,True
001,1,252,FALSE,0.0625,TRUE,mask,present,left,left,top,left,0.22555069999998523,present,0.49779549999993833,True,True
001,1,253,FALSE,0.025,TRUE,mask,absent,left,left,top,left,0.3706238999998277,present,0.5965158999999858,True,False
001,1,254,FALSE,0.025,TRUE,mask,present,left,left,top,left,0.30251240000006874,absent,1.2197479999999814,True,False
001,1,255,FALSE,0.0125,TRUE,mask,absent,left,left,bottom,left,0.2561652000001686,absent,0.5638885000000755,True,True
001,1,256,FALSE,0.025,FALSE,mask,present,left,right,top,right,0.3533978999998908,present,0.2737953999999263,True,True
001,1,257,FALSE,0.075,TRUE,mask,present,left,left,top,left,0.26593769999999495,present,0.2440518000000793,True,True
001,1,258,FALSE,0.0125,FALSE,mask,present,right,left,bottom,left,0.25148479999984374,present,0.2586820000001353,True,True
001,1,259,FALSE,0.025,FALSE,mask,present,right,left,bottom,left,0.25399240000001555,present,0.14594940000006318,True,True
001,1,260,TRUE,0.0375,TRUE,mask,present,right,right,top,None,None,None,None,None,None
001,1,261,FALSE,0.0625,FALSE,mask,present,right,left,bottom,left,0.32162289999996574,present,1.3300071000001026,True,True
001,1,262,FALSE,0.0375,FALSE,mask,absent,left,right,top,right,0.3052189999998518,absent,0.33913970000003246,True,True
001,1,263,FALSE,0.075,TRUE,mask,absent,left,left,top,left,0.27441670000007434,absent,0.8842300999999679,True,True
001,1,264,FALSE,0.0375,FALSE,mask,present,right,left,top,left,0.22067670000001272,present,0.32314629999996214,True,True
001,1,265,FALSE,0.05,TRUE,mask,absent,left,left,top,left,0.23330950000013218,absent,0.3726915999998255,True,True
001,1,266,FALSE,0.075,TRUE,mask,present,left,left,bottom,left,0.2368688999999904,present,0.292282699999987,True,True
001,1,267,FALSE,0.025,FALSE,mask,present,right,left,bottom,left,0.20015920000014376,present,0.25888110000005327,True,True
001,1,268,FALSE,0.0625,FALSE,mask,absent,left,right,bottom,left,0.5277760999999828,absent,1.327392300000156,False,True
001,1,269,FALSE,0.0375,TRUE,mask,present,right,right,bottom,right,0.2659625999999662,present,0.45336569999994936,True,True
001,1,270,FALSE,0.05,TRUE,mask,absent,left,left,top,left,0.3237575000000561,absent,1.4444437999998172,True,True
001,1,271,FALSE,0.05,TRUE,mask,present,right,right,bottom,right,0.2383245999999417,present,0.3062166999998226,True,True
001,1,272,FALSE,0.05,FALSE,mask,absent,left,right,top,right,0.35409549999985757,absent,0.36981869999999617,True,True
001,1,273,FALSE,0.025,TRUE,mask,present,right,right,top,right,0.2581956999997601,present,0.2907481000002008,True,True
001,1,274,FALSE,0.025,FALSE,mask,absent,left,right,bottom,right,0.3553396000002067,absent,0.32298820000005435,True,True
001,1,275,FALSE,0.075,FALSE,mask,present,left,right,top,right,0.45171750000008615,present,0.2762303999998039,True,True
001,1,276,FALSE,0.075,FALSE,mask,present,right,left,bottom,left,0.38815130000011777,present,1.2053158999997322,True,True
001,1,277,TRUE,0.05,FALSE,mask,present,left,right,bottom,None,None,None,None,None,None
001,1,278,FALSE,0.0125,FALSE,mask,present,left,right,bottom,right,0.22975780000024315,present,0.3544958000002225,True,True
001,1,279,FALSE,0.075,FALSE,mask,present,left,right,bottom,left,0.28351729999985764,present,0.9163554000001568,False,True
001,1,280,FALSE,0.0625,TRUE,mask,present,right,right,top,right,0.2598176000001331,present,0.9146947999997792,True,True
001,1,281,FALSE,0.05,FALSE,mask,present,left,right,bottom,right,0.39104260000021895,present,0.3886944000000767,True,True
001,1,282,FALSE,0.0375,FALSE,mask,absent,left,right,bottom,right,0.34555600000021514,absent,0.2902881999998499,True,True
001,1,283,FALSE,0.0125,TRUE,mask,absent,left,left,bottom,left,0.41883740000002945,absent,0.3713745000000017,True,True
001,1,284,FALSE,0.0125,TRUE,mask,present,left,left,top,left,0.3407156999996914,present,0.21117309999999634,True,True
001,1,285,FALSE,0.025,TRUE,mask,present,left,left,bottom,left,0.2956573000001299,present,0.193734399999812,True,True
001,1,286,FALSE,0.0125,FALSE,mask,absent,left,right,top,right,0.3269271999997727,absent,0.5318520000000717,True,True
001,1,287,FALSE,0.0125,TRUE,mask,present,right,right,top,right,0.4993528999998489,present,1.6818855999999869,True,True
001,1,288,FALSE,0.0125,TRUE,mask,present,right,right,bottom,right,0.28625099999999293,present,0.2893250000001899,True,True
001,1,289,FALSE,0.025,TRUE,mask,absent,left,left,bottom,left,0.2862759000004189,absent,0.30758940000032453,True,True
001,1,290,FALSE,0.025,TRUE,mask,present,right,right,top,right,0.24345369999991817,present,0.2110063000000082,True,True
001,1,291,FALSE,0.0625,FALSE,mask,present,left,right,top,right,0.37423089999992953,absent,0.3412954999998874,True,False
001,1,292,FALSE,0.0625,TRUE,mask,present,right,right,bottom,right,0.3022703999999976,present,0.5809177000001,True,True
001,1,293,FALSE,0.05,TRUE,mask,present,left,left,bottom,left,0.26864660000001095,present,0.4834313999999722,True,True
001,1,294,FALSE,0.0375,TRUE,mask,present,right,right,top,right,0.4772874000000229,absent,0.08481160000019372,True,False
001,1,295,FALSE,0.025,FALSE,mask,absent,left,right,top,right,0.28538399999979447,absent,0.4032782999997835,True,True
001,1,296,FALSE,0.0375,FALSE,mask,present,right,left,bottom,left,0.379649900000004,absent,0.35369630000013785,True,False
001,1,297,TRUE,0.0625,FALSE,mask,present,right,left,top,None,None,None,None,None,None
001,1,298,FALSE,0.075,TRUE,mask,present,left,left,top,left,0.3071583000000828,present,0.4190954000000602,True,True
001,1,299,FALSE,0.0125,FALSE,mask,present,left,right,bottom,right,0.4796222999998463,absent,0.13098179999997228,True,False
001,1,300,FALSE,0.0625,FALSE,mask,present,left,right,bottom,left,0.23151940000025206,present,1.3435364000001755,False,True
001,1,301,FALSE,0.0625,TRUE,mask,absent,left,left,top,left,0.39216129999977056,absent,0.821144699999877,True,True
001,1,302,FALSE,0.0375,TRUE,mask,present,left,left,bottom,left,0.4274279999999635,present,0.37032159999989744,True,True
001,1,303,FALSE,0.0125,TRUE,mask,absent,left,left,top,left,0.5121770999999171,absent,1.812381500000356,True,True
001,1,304,TRUE,0.0625,FALSE,mask,present,right,left,top,None,None,None,None,None,None
001,1,305,FALSE,0.0625,FALSE,mask,present,right,left,top,left,0.35366490000023987,present,1.0435551000000487,True,True
001,1,306,FALSE,0.0625,TRUE,mask,present,left,left,bottom,left,0.36417059999985213,present,0.30695550000018557,True,True
001,2,307,FALSE,0.0375,FALSE,mask,absent,left,right,bottom,right,0.6079328999999234,absent,0.7291497999999592,True,True
001,2,308,FALSE,0.0375,TRUE,mask,absent,left,left,bottom,left,0.38944549999996525,absent,0.5133165999995981,True,True
001,2,309,FALSE,0.0625,TRUE,mask,absent,left,left,bottom,left,0.4064785999999003,absent,0.3068260999998529,True,True
001,2,310,FALSE,0.0125,TRUE,mask,present,right,right,bottom,right,0.41810039999973014,absent,3.2825987999999597,True,False
001,2,311,FALSE,0.075,TRUE,mask,absent,left,left,bottom,left,0.2390810000001693,absent,0.28946989999985817,True,True
001,2,312,FALSE,0.05,FALSE,mask,present,left,right,top,right,0.3761792999998761,present,0.27521519999982047,True,True
001,2,313,FALSE,0.075,FALSE,mask,absent,left,right,top,right,0.291790299999775,absent,0.2413243999999395,True,True
001,2,314,FALSE,0.05,TRUE,mask,absent,left,left,bottom,left,0.3336828000001333,absent,0.28060069999992265,True,True
001,2,315,FALSE,0.075,FALSE,mask,present,left,right,top,right,0.3708151999999245,present,0.22598809999999503,True,True
001,2,316,FALSE,0.0125,TRUE,mask,absent,left,left,top,left,0.34601340000017444,absent,0.21292049999965457,True,True
001,2,317,FALSE,0.075,TRUE,mask,absent,left,left,top,left,0.28228589999980613,absent,0.29101600000012695,True,True
001,2,318,FALSE,0.0125,TRUE,mask,present,left,left,bottom,left,0.29291939999984606,present,0.24243049999995492,True,True
001,2,319,FALSE,0.025,FALSE,mask,present,left,right,bottom,right,0.4217196999998123,absent,0.6907159000002139,True,False
001,2,320,FALSE,0.0375,FALSE,mask,present,right,left,top,left,0.3433608999998796,present,0.7410847999999532,True,True
001,2,321,FALSE,0.0625,TRUE,mask,present,left,left,bottom,left,0.41889199999968696,present,0.7860900000000584,True,True
001,2,322,FALSE,0.075,FALSE,mask,present,right,left,top,left,0.33610459999999875,present,0.25994749999972555,True,True
001,2,323,FALSE,0.025,FALSE,mask,present,right,left,top,left,0.3188285999999607,present,0.4513864000000467,True,True
001,2,324,FALSE,0.0125,FALSE,mask,present,right,left,top,left,0.27057250000007116,present,0.27646599999980026,True,True
001,2,325,FALSE,0.0375,FALSE,mask,present,left,right,top,right,0.37776450000001205,absent,0.2284858000002714,True,False
001,2,326,FALSE,0.05,TRUE,mask,present,left,left,top,left,0.32697890000008556,present,0.5788251000003584,True,True
001,2,327,FALSE,0.0625,FALSE,mask,present,left,right,top,right,0.5394537999995919,present,0.5151852999997573,True,True
001,2,328,FALSE,0.0625,FALSE,mask,present,left,right,bottom,right,0.42923430000018925,present,0.6739050000001043,True,True
001,2,329,FALSE,0.075,TRUE,mask,present,left,left,bottom,left,0.2277216999996199,present,2.643971899999997,True,True
001,2,330,FALSE,0.0625,FALSE,mask,present,right,left,bottom,left,0.385336499999994,present,0.4825737000001027,True,True
001,2,331,FALSE,0.0375,TRUE,mask,absent,left,left,top,left,0.37141360000032364,absent,0.5458084000001691,True,True
001,2,332,FALSE,0.0125,FALSE,mask,present,right,left,bottom,left,0.26714329999958863,absent,0.2897008999998434,True,False
001,2,333,FALSE,0.0625,TRUE,mask,present,left,left,top,left,0.336213300000054,present,0.38683240000000296,True,True
001,2,334,FALSE,0.05,FALSE,mask,present,right,left,top,left,0.37147349999986545,present,0.5771915999998782,True,True
001,2,335,FALSE,0.05,FALSE,mask,present,left,right,bottom,right,0.4417851999996856,absent,0.16138749999981883,True,False
001,2,336,FALSE,0.0375,TRUE,mask,present,right,right,top,right,0.266110099999878,present,0.385353799999848,True,True
001,2,337,FALSE,0.0125,FALSE,mask,absent,left,right,top,right,0.35471370000004754,absent,1.0737608000004002,True,True
001,2,338,FALSE,0.0125,FALSE,mask,present,left,right,top,right,0.2609207000000424,present,0.27643140000009225,True,True
001,2,339,FALSE,0.0625,FALSE,mask,present,right,left,top,right,0.18446540000013556,present,1.097483900000043,False,True
001,2,340,FALSE,0.075,TRUE,mask,present,right,right,top,right,0.5406884000003629,present,0.7056078000000525,True,True
001,2,341,FALSE,0.05,TRUE,mask,absent,left,left,bottom,left,0.28108930000007604,absent,0.24248450000004595,True,True
001,2,342,FALSE,0.075,TRUE,mask,absent,left,left,bottom,left,0.2711113000000296,absent,0.27323859999978595,True,True
001,2,343,FALSE,0.0625,TRUE,mask,present,left,left,bottom,left,0.24528159999999843,present,0.26085269999975935,True,True
001,2,344,FALSE,0.0125,TRUE,mask,present,left,left,top,left,0.31840409999995245,absent,0.4822822000000997,True,False
001,2,345,FALSE,0.0375,FALSE,mask,absent,left,right,top,right,0.4859553999999662,absent,0.18116900000040914,True,True
001,2,346,FALSE,0.0125,FALSE,mask,absent,left,right,bottom,left,0.3748875000001135,absent,1.2945258000004287,False,True
001,2,347,FALSE,0.05,TRUE,mask,present,left,left,bottom,left,0.4258159999999407,present,0.3859889000000294,True,True
001,2,348,FALSE,0.075,FALSE,mask,present,left,right,bottom,right,0.48131569999986823,present,0.5807054000001699,True,True
001,2,349,FALSE,0.05,FALSE,mask,present,left,right,bottom,right,0.3967373000000407,present,0.40275259999998525,True,True
001,2,350,FALSE,0.025,TRUE,mask,present,left,left,top,left,0.3324385999999322,absent,0.9324767000002794,True,False
001,2,351,FALSE,0.0625,TRUE,mask,present,right,right,bottom,right,0.2494808000001285,present,0.25752920000013546,True,True
001,2,352,FALSE,0.075,FALSE,mask,present,left,right,top,right,0.3533884999997099,present,0.06860109999979613,True,True
001,2,353,FALSE,0.0125,FALSE,mask,absent,left,right,bottom,right,0.40617870000005496,absent,0.19588659999999436,True,True
001,2,354,FALSE,0.075,TRUE,mask,present,right,right,bottom,right,0.5696432999998251,absent,0.14561970000022484,True,False
001,2,355,FALSE,0.025,TRUE,mask,present,left,left,top,left,0.5068371000002116,absent,0.7225929999999607,True,False
001,2,356,FALSE,0.075,FALSE,mask,present,right,left,bottom,left,0.327509000000191,present,0.29106580000006943,True,True
001,2,357,FALSE,0.05,FALSE,mask,absent,left,right,top,right,0.35145379999994475,absent,0.2593304000001808,True,True
001,2,358,FALSE,0.0125,FALSE,mask,present,left,right,top,right,0.3008887999999388,present,0.6107655999999224,True,True
001,2,359,TRUE,0.0625,TRUE,mask,absent,left,left,top,None,None,None,None,None,None
001,2,360,FALSE,0.0625,FALSE,mask,absent,left,right,bottom,right,0.43457760000001144,absent,0.611134900000252,True,True
001,2,361,FALSE,0.05,FALSE,mask,present,right,left,bottom,left,0.3701132000001053,present,1.1886767000000873,True,True
001,2,362,FALSE,0.05,TRUE,mask,absent,left,left,top,left,0.2689298999998755,absent,0.2754901999996946,True,True
001,2,363,FALSE,0.0125,FALSE,mask,absent,left,right,top,right,0.320521799999824,absent,1.8095751999999266,True,True
001,2,364,FALSE,0.025,TRUE,mask,absent,left,left,top,left,0.39346819999991567,absent,0.5303294999998798,True,True
001,2,365,FALSE,0.025,TRUE,mask,absent,left,left,bottom,left,0.317703100000017,absent,0.37089030000015555,True,True
001,2,366,FALSE,0.0125,TRUE,mask,present,right,right,bottom,right,0.3770801999999094,present,0.724637299999813,True,True
001,2,367,FALSE,0.0125,TRUE,mask,absent,left,left,top,left,0.2889772999997149,absent,0.29001219999963723,True,True
001,2,368,FALSE,0.0125,TRUE,mask,present,right,right,top,right,0.31078270000034536,present,0.2289387999999235,True,True
001,2,369,FALSE,0.025,TRUE,mask,absent,left,left,top,left,0.28148160000000644,absent,0.3075599999997394,True,True
001,2,370,FALSE,0.0375,FALSE,mask,present,right,left,bottom,right,0.26225039999962974,present,1.6769180999999662,False,True
001,2,371,FALSE,0.075,TRUE,mask,present,left,left,top,left,0.2689297000001716,present,0.5948700999997527,True,True
001,2,372,FALSE,0.025,FALSE,mask,present,right,left,bottom,left,0.37708210000027975,present,0.4355636999998751,True,True
001,2,373,FALSE,0.025,TRUE,mask,absent,left,left,bottom,left,0.2623977000002924,absent,0.3733081000000311,True,True
001,2,374,FALSE,0.025,FALSE,mask,present,left,right,top,right,0.3961749999998574,absent,0.3708965000000717,True,False
001,2,375,FALSE,0.0625,TRUE,mask,present,right,right,top,right,0.2832165999998324,present,0.24181580000004033,True,True
001,2,376,FALSE,0.05,TRUE,mask,present,right,right,top,right,0.42457039999999324,present,0.28946270000005825,True,True
001,2,377,FALSE,0.0625,TRUE,mask,present,right,right,top,right,0.20228300000007948,present,0.06817980000005264,True,True
001,2,378,FALSE,0.0125,TRUE,mask,absent,left,left,bottom,left,0.2825974000002134,absent,0.37264790000017456,True,True
001,2,379,FALSE,0.0375,TRUE,mask,present,left,left,bottom,left,0.26549470000009023,present,0.19623689999980343,True,True
001,2,380,FALSE,0.0375,FALSE,mask,absent,left,right,bottom,right,0.4856134999999995,absent,0.81180170000016,True,True
001,2,381,FALSE,0.05,TRUE,mask,present,right,right,bottom,right,0.2414441999999326,present,0.20967919999975493,True,True
001,2,382,FALSE,0.0375,FALSE,mask,present,right,left,top,left,0.37018559999978606,present,0.3092803000004096,True,True
001,2,383,FALSE,0.0125,FALSE,mask,present,left,right,bottom,right,0.35083099999974365,absent,0.27538559999993595,True,False
001,2,384,FALSE,0.025,FALSE,mask,absent,left,right,bottom,right,0.2842486999998073,absent,0.09947890000012194,True,True
001,2,385,FALSE,0.05,FALSE,mask,absent,left,right,bottom,right,0.24786049999966053,absent,0.48782200000005105,True,True
001,2,386,FALSE,0.0625,TRUE,mask,absent,left,left,bottom,left,0.3705171000001428,absent,1.0735735999996905,True,True
001,2,387,FALSE,0.0375,FALSE,mask,present,left,right,top,right,0.3064663999998629,present,0.30841529999997874,True,True
001,2,388,FALSE,0.075,FALSE,mask,present,right,left,top,right,0.2990164999996523,present,0.8291101999998318,False,True
001,2,389,FALSE,0.025,TRUE,mask,present,left,left,bottom,left,0.4318413999999393,absent,0.2752820000000611,True,False
001,2,390,FALSE,0.05,FALSE,mask,absent,left,right,bottom,right,0.33121340000025157,absent,0.2733775000001515,True,True
001,2,391,FALSE,0.0125,FALSE,mask,present,right,left,top,left,0.255768199999693,present,0.8034865999998146,True,True
001,2,392,FALSE,0.025,FALSE,mask,absent,left,right,bottom,right,0.33286999999972977,absent,0.21034319999989748,True,True
001,2,393,FALSE,0.05,FALSE,mask,present,left,right,top,right,0.39313609999999244,present,0.6759544999999889,True,True
001,2,394,FALSE,0.0125,FALSE,mask,present,left,right,bottom,right,0.5670924000000923,absent,0.3403140999998868,True,False
001,2,395,FALSE,0.025,FALSE,mask,absent,left,right,top,right,0.2901756999999634,absent,0.16525640000008934,True,True
001,2,396,FALSE,0.0625,FALSE,mask,absent,left,right,top,right,0.2859146000000692,absent,0.037180699999680655,True,True
001,2,397,FALSE,0.025,TRUE,mask,present,right,right,top,right,0.2794314000002487,present,0.3554871000001185,True,True
001,2,398,FALSE,0.05,TRUE,mask,present,right,right,top,right,0.3572653999999602,present,0.25774879999971745,True,True
001,2,399,FALSE,0.05,FALSE,mask,absent,left,right,top,right,0.35152030000017476,absent,0.22801819999995132,True,True
001,2,400,FALSE,0.075,TRUE,mask,present,left,left,top,left,0.24982870000030744,present,0.3539857999999185,True,True
001,2,401,FALSE,0.0375,TRUE,mask,present,left,left,top,left,0.2043668000001162,present,0.2093937999998161,True,True
001,2,402,FALSE,0.0375,TRUE,mask,present,right,right,top,right,0.4059404999998151,absent,0.19699790000004214,True,False
001,2,403,FALSE,0.0375,TRUE,mask,present,right,right,bottom,right,0.3087063000002672,absent,0.21098940000001676,True,False
001,2,404,FALSE,0.075,FALSE,mask,present,right,left,bottom,left,0.4454708000002938,present,0.24186090000011973,True,True
001,2,405,FALSE,0.0375,TRUE,mask,present,right,right,bottom,right,0.32509650000019974,absent,0.2426237999998193,True,False
001,2,406,TRUE,0.0625,TRUE,mask,absent,left,left,top,None,None,None,None,None,None
001,2,407,FALSE,0.025,FALSE,mask,present,right,left,bottom,left,0.3415644000001521,present,0.06539019999991069,True,True
001,2,408,FALSE,0.0625,FALSE,mask,absent,left,right,bottom,right,0.33064199999989796,absent,0.5953506999999263,True,True
001,2,409,FALSE,0.075,FALSE,mask,absent,left,right,top,right,0.26175210000019433,absent,0.06591930000013235,True,True
001,2,410,FALSE,0.0375,TRUE,mask,present,left,left,bottom,left,0.2864020000001801,present,0.11585739999964062,True,True
001,2,411,FALSE,0.075,TRUE,mask,absent,left,left,top,left,0.25961050000023533,absent,0.25848229999974137,True,True
001,2,412,FALSE,0.05,FALSE,mask,present,right,left,top,right,0.30263319999994565,present,0.636519700000008,False,True
001,2,413,FALSE,0.0625,FALSE,mask,absent,left,right,top,right,0.33149749999984124,absent,0.2762364999998681,True,True
001,2,414,FALSE,0.0625,TRUE,mask,present,left,left,top,left,0.32410399999980655,present,0.9484984000000622,True,True
001,2,415,FALSE,0.025,FALSE,mask,present,left,right,bottom,right,0.38794559999996636,absent,0.11500369999976101,True,False
001,2,416,FALSE,0.0625,FALSE,mask,present,right,left,bottom,left,0.3970542000001842,present,1.6817685999999412,True,True
001,2,417,FALSE,0.0375,FALSE,mask,absent,left,right,top,right,0.31837180000002263,absent,0.10018649999983609,True,True
001,2,418,FALSE,0.0625,FALSE,mask,present,left,right,top,right,0.32785950000015873,present,0.1293126000000484,True,True
001,2,419,FALSE,0.075,FALSE,mask,absent,left,right,bottom,right,0.28819479999992836,absent,0.41993860000002314,True,True
001,2,420,FALSE,0.025,TRUE,mask,present,right,right,bottom,right,0.37896079999973153,present,0.2923488000001271,True,True
001,2,421,FALSE,0.0125,TRUE,mask,absent,left,left,bottom,left,0.27822009999999864,absent,1.8416247000000112,True,True
001,2,422,FALSE,0.0625,TRUE,mask,absent,left,left,top,left,0.3830966000000444,absent,0.3731785999998465,True,True
001,2,423,FALSE,0.025,FALSE,mask,present,right,left,top,left,0.25353880000011486,present,0.22874049999973067,True,True
001,2,424,FALSE,0.075,TRUE,mask,present,left,left,bottom,left,0.23899159999973563,present,0.09871010000006208,True,True
001,2,425,FALSE,0.075,FALSE,mask,absent,left,right,bottom,left,0.22205669999993916,absent,0.9139461999998275,False,True
001,2,426,FALSE,0.05,TRUE,mask,present,left,left,top,left,0.3408849999996164,present,1.588609400000223,True,True
001,2,427,FALSE,0.0625,FALSE,mask,present,left,right,bottom,left,0.19230770000012853,present,1.7161622999997235,False,True
001,2,428,FALSE,0.0125,TRUE,mask,present,right,right,top,right,0.4250637000000097,present,1.6659481000001506,True,True
001,2,429,FALSE,0.025,TRUE,mask,present,left,left,bottom,left,0.3876301999998759,absent,0.34113680000018576,True,False
001,2,430,FALSE,0.025,FALSE,mask,absent,left,right,top,right,0.3153285999997024,absent,0.4047252999998818,True,True
001,2,431,FALSE,0.0375,TRUE,mask,absent,left,left,bottom,left,0.2469029999997474,absent,0.2771428000000924,True,True
001,2,432,FALSE,0.025,FALSE,mask,present,left,right,top,right,0.2575042999997095,present,0.22575549999965006,True,True
001,2,433,FALSE,0.0125,FALSE,mask,present,right,left,bottom,left,0.23795539999991888,present,0.4691992999996728,True,True
001,2,434,FALSE,0.05,TRUE,mask,absent,left,left,top,left,0.36636129999988043,absent,0.16508929999963584,True,True
001,2,435,FALSE,0.025,TRUE,mask,present,right,right,bottom,right,0.2942016000001786,present,0.2770429000001968,True,True
001,2,436,FALSE,0.0375,FALSE,mask,present,left,right,bottom,right,0.38540740000007645,absent,0.3232944999999745,True,False
001,2,437,FALSE,0.05,TRUE,mask,present,left,left,bottom,left,0.2604722999999467,present,0.37021480000021256,True,True
001,2,438,FALSE,0.0375,TRUE,mask,present,left,left,top,left,0.22407370000019,present,0.1151439999998729,True,True
001,2,439,FALSE,0.0125,TRUE,mask,present,left,left,top,left,0.25172420000035345,present,0.3536159000000225,True,True
001,2,440,FALSE,0.0375,FALSE,mask,present,left,right,bottom,right,0.37647160000005897,absent,0.738691199999721,True,False
001,2,441,FALSE,0.025,TRUE,mask,present,right,right,top,right,0.27598760000000766,present,0.4035635000000184,True,True
001,2,442,FALSE,0.0375,FALSE,mask,present,right,left,bottom,left,0.4202393000000484,absent,0.595458900000267,True,False
001,2,443,FALSE,0.05,FALSE,mask,present,right,left,bottom,left,0.36211699999967095,present,0.17965239999966798,True,True
001,2,444,FALSE,0.05,TRUE,mask,present,right,right,bottom,right,0.33521539999992456,absent,0.21178340000005846,True,False
001,2,445,FALSE,0.0625,TRUE,mask,present,right,right,bottom,right,0.2046374999999898,present,0.29038660000014715,True,True
001,2,446,FALSE,0.075,TRUE,mask,present,right,right,top,right,0.3820076000001791,present,0.32481400000006033,True,True
001,2,447,FALSE,0.0125,TRUE,mask,present,left,left,bottom,left,0.47700799999984156,absent,0.3385404999999082,True,False
001,2,448,FALSE,0.0375,TRUE,mask,absent,left,left,top,left,0.3402790999998615,present,0.5642941000000974,True,False
001,2,449,FALSE,0.075,TRUE,mask,present,right,right,bottom,right,0.26411600000028557,present,0.4995213000001968,True,True
001,2,450,FALSE,0.0625,TRUE,mask,absent,left,left,top,left,0.41969209999979284,absent,0.5475650000003043,True,True
001,2,451,TRUE,0.0625,FALSE,mask,present,right,left,top,None,None,None,None,None,None
001,2,452,FALSE,0.075,FALSE,mask,present,left,right,bottom,right,0.4290478999996594,present,0.8977804999999535,True,True
001,2,453,FALSE,0.0625,FALSE,mask,present,right,left,top,right,0.5382251000000906,present,0.6705276000002414,False,True
001,3,454,FALSE,0.05,FALSE,mask,absent,left,right,top,right,0.38988229999995383,absent,1.2112539999998262,True,True
001,3,455,FALSE,0.05,TRUE,mask,present,left,left,top,left,0.2735041999999339,present,0.4672547999998642,True,True
001,3,456,FALSE,0.025,FALSE,mask,absent,left,right,bottom,right,0.3372432999999546,absent,0.2417052999999214,True,True
001,3,457,FALSE,0.025,FALSE,mask,present,left,right,bottom,right,0.34305559999984325,present,0.30724670000017795,True,True
001,3,458,FALSE,0.075,TRUE,mask,present,right,right,top,right,0.22994770000013887,present,0.17934349999995902,True,True
001,3,459,FALSE,0.075,FALSE,mask,present,right,left,top,right,0.2180630999996538,present,1.177718299999924,False,True
001,3,460,FALSE,0.0375,TRUE,mask,present,left,left,bottom,left,0.33582069999965825,absent,0.70703820000017,True,False
001,3,461,TRUE,0.075,FALSE,mask,present,right,left,bottom,None,None,None,None,None,None
001,3,462,FALSE,0.05,TRUE,mask,present,left,left,top,left,0.32435290000012174,present,1.3807389999997213,True,True
001,3,463,FALSE,0.075,FALSE,mask,present,left,right,bottom,left,0.20807039999999688,present,2.2707682999998724,False,True
001,3,464,FALSE,0.025,FALSE,mask,absent,left,right,bottom,right,0.32909319999998843,absent,0.6098202999996829,True,True
001,3,465,FALSE,0.075,TRUE,mask,present,right,right,top,right,0.3034781000001203,present,2.165379799999755,True,True
001,3,466,FALSE,0.075,FALSE,mask,present,right,left,bottom,left,0.5536086000001887,present,0.7082038000003195,True,True
001,3,467,FALSE,0.0125,FALSE,mask,present,left,right,bottom,right,0.4366746000000603,absent,0.9325562999997601,True,False
001,3,468,FALSE,0.0625,TRUE,mask,absent,left,left,bottom,left,0.3609995000001618,absent,0.28988040000012916,True,True
001,3,469,FALSE,0.0625,FALSE,mask,absent,left,right,bottom,right,0.3392649000002166,absent,0.24295970000002853,True,True
001,3,470,FALSE,0.025,FALSE,mask,present,left,right,top,right,0.3972214000000349,present,2.1312158999999156,True,True
001,3,471,FALSE,0.025,TRUE,mask,present,left,left,bottom,left,0.24320339999985663,absent,1.3300809000002118,True,False
001,3,472,FALSE,0.0375,FALSE,mask,absent,left,right,top,right,0.34032520000027944,present,0.6738836999998057,True,False
001,3,473,FALSE,0.0375,FALSE,mask,present,left,right,top,right,0.3473868000000948,present,1.1874383999997917,True,True
001,3,474,FALSE,0.0375,TRUE,mask,absent,left,left,top,left,0.30236639999975523,absent,0.21159850000003644,True,True
001,3,475,FALSE,0.025,TRUE,mask,present,right,right,bottom,right,0.3149737999997342,present,0.19636179999997694,True,True
001,3,476,FALSE,0.0125,TRUE,mask,present,left,left,top,left,0.27325939999991533,absent,0.25830790000009074,True,False
001,3,477,FALSE,0.0625,FALSE,mask,present,right,left,top,right,0.22198089999983495,present,0.6383591999997407,False,True
001,3,478,FALSE,0.05,TRUE,mask,present,right,right,bottom,right,0.4620057000001907,absent,0.4173899000002166,True,False
001,3,479,FALSE,0.075,TRUE,mask,absent,left,left,top,left,0.4026472999998987,present,1.4267626000000746,True,False
001,3,480,FALSE,0.05,FALSE,mask,present,left,right,top,right,0.49349000000029264,present,0.21103660000017044,True,True
001,3,481,FALSE,0.0375,FALSE,mask,absent,left,right,bottom,right,0.37424639999971987,absent,0.22929590000012467,True,True
001,3,482,FALSE,0.0375,FALSE,mask,present,right,left,bottom,left,0.39817390000007435,present,1.602889000000232,True,True
001,3,483,FALSE,0.075,FALSE,mask,absent,left,right,top,right,0.42511889999968844,absent,0.22663039999997636,True,True
001,3,484,FALSE,0.075,FALSE,mask,present,left,right,top,right,0.34262699999999313,present,0.5622196999997868,True,True
001,3,485,FALSE,0.0125,FALSE,mask,absent,left,right,bottom,right,0.309234099999685,absent,0.2101201000000401,True,True
001,3,486,FALSE,0.05,FALSE,mask,absent,left,right,bottom,right,0.31149290000030305,absent,0.2443874999999025,True,True
001,3,487,FALSE,0.05,TRUE,mask,present,left,left,bottom,left,0.4202517999997326,present,0.8834686000000147,True,True
001,3,488,FALSE,0.0125,TRUE,mask,present,left,left,top,left,0.2894317999998748,absent,1.7298204999997324,True,False
001,3,489,FALSE,0.025,TRUE,mask,present,left,left,bottom,left,0.2879129000002649,present,0.46840579999980037,True,True
001,3,490,FALSE,0.0625,FALSE,mask,present,right,left,bottom,left,0.3677342000000863,present,0.27645380000012665,True,True
001,3,491,FALSE,0.0625,TRUE,mask,present,right,right,bottom,right,0.3201456000001599,present,0.643377099999725,True,True
001,3,492,FALSE,0.0125,FALSE,mask,present,left,right,top,right,0.3543758999999227,absent,0.5809116999998878,True,False
001,3,493,FALSE,0.05,TRUE,mask,absent,left,left,top,left,0.2591308000000936,absent,0.2449701999998979,True,True
001,3,494,FALSE,0.025,TRUE,mask,present,right,right,top,right,0.2857785999999578,present,0.24439399999982925,True,True
001,3,495,FALSE,0.0625,TRUE,mask,present,left,left,top,left,0.22655929999973523,present,0.8176788999999189,True,True
001,3,496,FALSE,0.025,FALSE,mask,present,left,right,top,right,0.3334912999998778,absent,0.35337470000013127,True,False
001,3,497,FALSE,0.05,FALSE,mask,present,right,left,top,left,0.3332076000001507,present,0.38727300000027753,True,True
001,3,498,FALSE,0.025,FALSE,mask,present,right,left,top,left,0.3906416999998328,absent,0.8183493999999882,True,False
001,3,499,FALSE,0.0625,TRUE,mask,present,right,right,bottom,right,0.3481482000001961,present,0.42020370000000185,True,True
001,3,500,FALSE,0.025,FALSE,mask,present,right,left,bottom,left,0.4966033000000607,absent,0.7889155000002575,True,False
001,3,501,FALSE,0.025,TRUE,mask,present,right,right,top,right,0.3222373999997217,absent,0.27461040000025605,True,False
001,3,502,FALSE,0.075,FALSE,mask,present,right,left,top,left,0.3371480999999221,present,0.7090467000002718,True,True
001,3,503,FALSE,0.0125,FALSE,mask,present,left,right,top,left,0.5111962999999378,present,0.7339929999998276,False,True
001,3,504,FALSE,0.075,FALSE,mask,absent,left,right,bottom,left,0.2460641000002397,absent,1.2651236000001518,False,True
001,3,505,FALSE,0.025,TRUE,mask,present,left,left,top,left,0.38856059999989156,present,1.9413093000002846,True,True
001,3,506,FALSE,0.05,TRUE,mask,absent,left,left,bottom,left,0.32709669999985636,absent,0.27462310000009893,True,True
001,3,507,FALSE,0.0125,TRUE,mask,absent,left,left,bottom,left,0.383667499999774,absent,0.229035599999861,True,True
001,3,508,FALSE,0.075,TRUE,mask,absent,left,left,top,left,0.3590420999998969,absent,0.292786999999862,True,True
001,3,509,FALSE,0.025,FALSE,mask,present,right,left,bottom,left,0.5000068999997893,absent,0.5966886999999588,True,False
001,3,510,FALSE,0.05,FALSE,mask,present,left,right,top,right,0.46284120000018447,present,0.6931008999999904,True,True
001,3,511,FALSE,0.0375,TRUE,mask,present,right,right,top,right,0.40973780000012994,present,0.5779113999997207,True,True
001,3,512,FALSE,0.0125,FALSE,mask,present,right,left,bottom,left,0.3312490999996953,absent,2.0986338000002434,True,False
001,3,513,FALSE,0.0125,TRUE,mask,absent,left,left,bottom,left,0.3212699999999131,absent,0.212492299999667,True,True
001,3,514,FALSE,0.05,FALSE,mask,present,left,right,bottom,right,0.40216670000017984,present,0.24340339999980642,True,True
001,3,515,FALSE,0.0125,TRUE,mask,present,right,right,top,right,0.28212230000008276,absent,0.4361873000002561,True,False
001,3,516,FALSE,0.05,TRUE,mask,present,right,right,bottom,right,0.23323649999974805,present,0.2932687000002261,True,True
001,3,517,FALSE,0.0625,TRUE,mask,present,right,right,top,right,0.4121258999998645,present,0.549023699999907,True,True
001,3,518,FALSE,0.075,TRUE,mask,present,left,left,bottom,left,0.22167579999995723,present,0.3854508999997961,True,True
001,3,519,FALSE,0.0375,TRUE,mask,absent,left,left,bottom,left,0.42858579999983704,absent,0.6914719000001242,True,True
001,3,520,FALSE,0.025,TRUE,mask,absent,left,left,top,left,0.28295200000002296,absent,0.16367570000011256,True,True
001,3,521,FALSE,0.075,TRUE,mask,absent,left,left,bottom,left,0.3123071999998501,absent,0.4679363000000194,True,True
001,3,522,FALSE,0.0625,TRUE,mask,absent,left,left,bottom,left,0.4109161999999742,absent,1.8106580000003305,True,True
001,3,523,FALSE,0.075,TRUE,mask,present,left,left,top,left,0.23051729999997406,present,1.1532109999998283,True,True
001,3,524,FALSE,0.05,FALSE,mask,present,right,left,top,left,0.3976284000000305,present,0.7056833999999981,True,True
001,3,525,FALSE,0.05,FALSE,mask,present,right,left,bottom,left,0.3654778999998598,present,0.2760739000000285,True,True
001,3,526,FALSE,0.025,TRUE,mask,absent,left,left,top,left,0.35792080000010174,absent,0.2449624999999287,True,True
001,3,527,FALSE,0.0125,TRUE,mask,present,right,right,bottom,right,0.5910946999997577,present,1.2415562000001046,True,True
001,3,528,FALSE,0.075,TRUE,mask,present,left,left,bottom,left,0.2461339000001317,present,0.24153419999993275,True,True
001,3,529,FALSE,0.05,FALSE,mask,absent,left,right,top,right,0.36441770000010365,absent,0.05180309999968813,True,True
001,3,530,FALSE,0.025,TRUE,mask,present,right,right,bottom,right,0.3240259999997761,present,0.18114839999998367,True,True
001,3,531,FALSE,0.05,TRUE,mask,absent,left,left,top,left,0.3254707999999482,absent,0.08519599999999627,True,True
001,3,532,FALSE,0.0625,TRUE,mask,absent,left,left,top,left,0.2740683000001809,absent,0.9471407000000909,True,True
001,3,533,FALSE,0.0125,TRUE,mask,present,right,right,top,right,0.3449275999996644,present,0.5456552999999076,True,True
001,3,534,FALSE,0.0625,FALSE,mask,absent,left,right,top,right,0.30025419999992664,absent,0.26105360000019573,True,True
001,3,535,FALSE,0.075,TRUE,mask,present,right,right,bottom,right,0.26024250000000393,present,0.09981379999999263,True,True
001,3,536,FALSE,0.0125,FALSE,mask,present,right,left,top,left,0.28087420000019847,present,0.2582700999996632,True,True
001,3,537,FALSE,0.0375,TRUE,mask,present,right,right,bottom,right,0.28314289999980247,present,0.03369359999987864,True,True
001,3,538,FALSE,0.0125,FALSE,mask,present,right,left,bottom,left,0.2529471999996531,present,0.5955137999999351,True,True
001,3,539,FALSE,0.0625,TRUE,mask,absent,left,left,top,left,0.2953330000000278,absent,0.09955110000009881,True,True
001,3,540,FALSE,0.0125,TRUE,mask,present,left,left,bottom,left,0.29601499999989755,present,0.2093620999999075,True,True
001,3,541,FALSE,0.0125,TRUE,mask,absent,left,left,top,left,0.30641309999964506,absent,1.3627873999998883,True,True
001,3,542,FALSE,0.0125,TRUE,mask,present,left,left,bottom,left,0.20336180000003878,present,0.1945885999998609,True,True
001,3,543,FALSE,0.0375,TRUE,mask,absent,left,left,bottom,left,0.19495110000025306,absent,1.2345429000001786,True,True
001,3,544,FALSE,0.0625,TRUE,mask,present,left,left,bottom,left,0.1619369000000006,present,0.1468417999999474,True,True
001,3,545,FALSE,0.0625,FALSE,mask,present,left,right,bottom,left,0.266883499999949,present,0.9525684999998703,False,True
001,3,546,FALSE,0.0625,FALSE,mask,present,left,right,top,right,0.5896708000000217,present,0.18002459999979692,True,True
001,3,547,FALSE,0.075,FALSE,mask,present,left,right,bottom,left,0.22908659999984593,present,0.6406025999999656,False,True
001,3,548,FALSE,0.025,FALSE,mask,present,left,right,bottom,right,0.3401364999999714,present,1.2681597000000693,True,True
001,3,549,FALSE,0.0375,FALSE,mask,absent,left,right,bottom,right,0.26071790000014516,absent,0.27711039999985587,True,True
001,3,550,FALSE,0.075,TRUE,mask,present,left,left,top,left,0.3639866000003167,present,0.27470720000019355,True,True
001,3,551,FALSE,0.0625,FALSE,mask,absent,left,right,bottom,right,0.35869499999989785,absent,0.3222944999997708,True,True
001,3,552,TRUE,0.0375,TRUE,mask,present,left,left,bottom,None,None,None,None,None,None
001,3,553,FALSE,0.0375,FALSE,mask,present,left,right,top,left,0.3105869999999413,absent,0.8780865999997332,False,False
001,3,554,FALSE,0.0625,FALSE,mask,absent,left,right,top,right,0.31236330000001544,absent,0.8501003000001219,True,True
001,3,555,FALSE,0.075,FALSE,mask,absent,left,right,top,right,0.3542210000000523,absent,1.6172803000004023,True,True
001,3,556,FALSE,0.05,FALSE,mask,present,left,right,bottom,right,0.37478920000012295,present,0.2445201000000452,True,True
001,3,557,FALSE,0.025,TRUE,mask,absent,left,left,bottom,left,0.3007198000000244,absent,0.4492783999999119,True,True
001,3,558,FALSE,0.0375,FALSE,mask,present,right,left,top,left,0.4062752999998338,present,0.17733929999985776,True,True
001,3,559,FALSE,0.05,FALSE,mask,present,right,left,bottom,left,0.37036840000018856,present,0.16360200000008263,True,True
001,3,560,FALSE,0.0375,FALSE,mask,present,left,right,bottom,right,0.35798240000031,absent,0.30554620000020805,True,False
001,3,561,FALSE,0.0625,TRUE,mask,present,left,left,top,left,0.4070496999997886,present,1.810773099999551,True,True
001,3,562,FALSE,0.0375,FALSE,mask,present,left,right,bottom,right,0.3501535000000331,present,0.7533300000000054,True,True
001,3,563,FALSE,0.0625,TRUE,mask,present,left,left,bottom,left,0.1814632000000529,present,0.17888070000026346,True,True
001,3,564,FALSE,0.0625,FALSE,mask,present,left,right,top,left,0.2085807999997087,present,0.38225809999994453,False,True
001,3,565,FALSE,0.0125,FALSE,mask,absent,left,right,top,right,0.3759597999996913,absent,0.24283070000001317,True,True
001,3,566,FALSE,0.075,FALSE,mask,present,right,left,bottom,left,0.3908632000002399,present,0.4993223000001308,True,True
001,3,567,FALSE,0.05,TRUE,mask,present,left,left,bottom,left,0.22261390000039682,present,0.36964739999984886,True,True
001,3,568,FALSE,0.0375,TRUE,mask,present,left,left,bottom,left,0.22324090000029173,present,0.3386382999997295,True,True
001,3,569,FALSE,0.0125,FALSE,mask,present,left,right,bottom,right,0.38992410000037125,present,0.8683337000002211,True,True
001,3,570,FALSE,0.0125,FALSE,mask,absent,left,right,bottom,right,0.2742895999999746,absent,0.1973611000003075,True,True
001,3,571,FALSE,0.0375,FALSE,mask,absent,left,right,top,right,0.38355700000010984,absent,0.22544849999985672,True,True
001,3,572,FALSE,0.0125,FALSE,mask,present,right,left,top,left,0.3934970999998768,present,0.4663814000000457,True,True
001,3,573,FALSE,0.025,FALSE,mask,absent,left,right,top,right,0.3481645000001663,absent,0.1329513999999108,True,True
001,3,574,FALSE,0.075,TRUE,mask,present,right,right,bottom,right,0.2558444999999665,present,0.2442415999998957,True,True
001,3,575,FALSE,0.0375,TRUE,mask,present,right,right,top,right,0.2787690999998631,present,0.16218030000027284,True,True
001,3,576,FALSE,0.05,TRUE,mask,present,right,right,top,right,0.2758971999996902,present,0.3714703999999074,True,True
001,3,577,FALSE,0.025,FALSE,mask,absent,left,right,top,right,0.5021532000000661,absent,0.21202180000000226,True,True
001,3,578,FALSE,0.0625,TRUE,mask,present,right,right,top,right,0.22857410000005984,present,0.12930580000011105,True,True
001,3,579,FALSE,0.0375,TRUE,mask,present,left,left,top,left,0.34869609999987006,present,0.6914138000001913,True,True
001,3,580,FALSE,0.0375,TRUE,mask,absent,left,left,top,left,0.28060099999993326,absent,0.13078719999975874,True,True
001,3,581,FALSE,0.05,TRUE,mask,absent,left,left,bottom,left,0.3245153000002574,absent,0.22757040000033157,True,True
001,3,582,FALSE,0.0375,FALSE,mask,present,right,left,top,right,0.29910960000006526,present,0.5965916000000107,False,True
001,3,583,FALSE,0.0125,TRUE,mask,present,right,right,bottom,right,0.4626186000000416,absent,0.9773196000001008,True,False
001,3,584,TRUE,0.025,TRUE,mask,absent,left,left,bottom,None,None,None,None,None,None
001,3,585,FALSE,0.025,FALSE,mask,present,right,left,top,left,0.35606619999998657,present,0.8504517999999734,True,True
001,3,586,FALSE,0.025,TRUE,mask,absent,left,left,bottom,left,0.2730802000000949,absent,0.3388062999997601,True,True
001,3,587,FALSE,0.0125,TRUE,mask,absent,left,left,top,left,0.25734749999992346,absent,0.41490669999984675,True,True
001,3,588,FALSE,0.0625,FALSE,mask,present,left,right,bottom,left,0.2189568999997391,present,0.6700673000000279,False,True
001,3,589,FALSE,0.0375,FALSE,mask,present,right,left,bottom,left,0.42357339999989563,present,0.5779478000004019,True,True
001,3,590,FALSE,0.075,FALSE,mask,absent,left,right,bottom,right,0.4259360999999444,absent,1.618833900000027,True,True
001,3,591,FALSE,0.075,TRUE,mask,absent,left,left,bottom,left,0.38750819999995656,absent,0.2753885999995873,True,True
001,3,592,FALSE,0.0125,FALSE,mask,absent,left,right,top,right,0.3149210999999923,absent,0.16498139999976047,True,True
001,3,593,FALSE,0.075,FALSE,mask,present,left,right,top,right,0.3872863999999936,present,0.21258320000015374,True,True
001,3,594,FALSE,0.05,FALSE,mask,absent,left,right,bottom,right,0.35977550000006886,absent,0.3387244999998984,True,True
001,3,595,FALSE,0.025,TRUE,mask,present,left,left,top,left,0.2648585000001731,absent,0.03492159999996147,True,False
001,3,596,FALSE,0.0625,FALSE,mask,present,right,left,top,left,0.3503200000000106,present,0.24502480000001015,True,True
001,3,597,FALSE,0.0625,FALSE,mask,present,right,left,bottom,left,0.35474889999977677,present,0.6737920000000486,True,True
001,3,598,FALSE,0.05,TRUE,mask,present,right,right,top,right,0.28314129999989746,present,0.6613471000000573,True,True
001,3,599,FALSE,0.0375,TRUE,mask,present,right,right,bottom,right,0.2903331999996226,present,0.2593824999999015,True,True
001,3,600,FALSE,0.0375,TRUE,mask,present,left,left,top,left,0.40110120000008465,present,0.5331524999996873,True,True
001,4,601,FALSE,0.075,FALSE,mask,absent,left,right,top,right,0.3266103999999359,absent,0.21850069999982225,True,True
001,4,602,FALSE,0.0125,TRUE,mask,present,left,left,top,left,0.3343947999996999,present,0.5171758999999838,True,True
001,4,603,FALSE,0.0375,TRUE,mask,present,right,right,top,right,0.29032290000031935,present,0.21100079999996524,True,True
001,4,604,FALSE,0.025,TRUE,mask,present,left,left,top,left,0.17938600000024962,present,0.08496869999999035,True,True
001,4,605,FALSE,0.0125,TRUE,mask,present,left,left,bottom,left,0.24715809999997873,present,0.8847744999998213,True,True
001,4,606,FALSE,0.075,TRUE,mask,present,left,left,bottom,left,0.22754669999994803,present,0.17912359999991168,True,True
001,4,607,FALSE,0.0125,TRUE,mask,present,right,right,top,right,0.3171913000001041,present,1.7310684000003675,True,True
001,4,608,FALSE,0.0375,FALSE,mask,absent,left,right,top,right,0.4184715999999753,absent,1.491635700000188,True,True
001,4,609,FALSE,0.075,TRUE,mask,absent,left,left,top,left,0.2351929999999811,absent,0.1012550000000374,True,True
001,4,610,FALSE,0.05,TRUE,mask,absent,left,left,top,left,0.25396470000032423,absent,0.4685392999999749,True,True
001,4,611,FALSE,0.05,TRUE,mask,present,right,right,bottom,right,0.24820359999966968,present,0.21228629999995974,True,True
001,4,612,FALSE,0.075,FALSE,mask,absent,left,right,bottom,right,0.2496356999999989,absent,3.477050599999984,True,True
001,4,613,FALSE,0.075,FALSE,mask,present,left,right,top,right,0.3405169000002388,present,0.06891479999967487,True,True
001,4,614,FALSE,0.0125,FALSE,mask,present,left,right,bottom,right,0.27223289999983535,absent,0.13126910000028147,True,False
001,4,615,FALSE,0.0125,TRUE,mask,present,left,left,bottom,left,0.26233989999991536,present,0.5958405999999741,True,True
001,4,616,FALSE,0.025,FALSE,mask,present,left,right,top,left,0.20316670000011072,present,0.18752600000016173,False,True
001,4,617,FALSE,0.075,FALSE,mask,present,right,left,top,right,0.31501360000038403,present,0.30455849999998463,False,True
001,4,618,FALSE,0.025,TRUE,mask,absent,left,left,bottom,left,0.27658649999966656,absent,0.3541720000002897,True,True
001,4,619,FALSE,0.0125,FALSE,mask,absent,left,right,bottom,right,0.302013800000168,absent,0.2765836999997191,True,True
001,4,620,FALSE,0.0625,FALSE,mask,present,left,right,bottom,right,0.36560380000037185,present,0.6123259999999391,True,True
001,4,621,FALSE,0.075,TRUE,mask,absent,left,left,top,left,0.3858046000000286,absent,0.33852500000011787,True,True
001,4,622,FALSE,0.075,FALSE,mask,present,left,right,bottom,right,0.3900459999999839,present,0.48375739999983125,True,True
001,4,623,FALSE,0.075,FALSE,mask,absent,left,right,bottom,right,0.3261139000001094,absent,0.2743196999999782,True,True
001,4,624,FALSE,0.05,FALSE,mask,present,left,right,bottom,right,0.35769500000014887,present,0.19323399999984758,True,True
001,4,625,FALSE,0.0625,TRUE,mask,present,right,right,top,right,0.2759731000001011,present,1.3946564000002581,True,True
001,4,626,FALSE,0.0125,TRUE,mask,present,right,right,bottom,right,0.302762199999961,present,0.5813186000000314,True,True
001,4,627,FALSE,0.075,TRUE,mask,present,right,right,bottom,right,0.18098039999995308,present,0.2757335999999668,True,True
001,4,628,FALSE,0.0375,FALSE,mask,present,right,left,top,right,0.298430400000143,present,0.24044640000010986,False,True
001,4,629,FALSE,0.025,TRUE,mask,present,left,left,bottom,left,0.33963859999994384,present,0.6107114999999794,True,True
001,4,630,FALSE,0.0625,TRUE,mask,present,left,left,top,left,0.2695126999997228,present,0.4667592999999215,True,True
001,4,631,FALSE,0.0375,TRUE,mask,present,right,right,bottom,right,0.2916213000003154,present,1.4446709999997438,True,True
001,4,632,FALSE,0.025,TRUE,mask,present,left,left,bottom,left,0.3402907000004234,absent,0.9472859000002245,True,False
001,4,633,FALSE,0.0625,TRUE,mask,present,left,left,top,left,0.26305749999983163,present,0.1973070999997617,True,True
001,4,634,FALSE,0.0375,TRUE,mask,absent,left,left,bottom,left,0.34489579999990383,absent,0.37205930000027365,True,True
001,4,635,FALSE,0.05,FALSE,mask,absent,left,right,top,right,0.3074040999999852,absent,0.1964671000000635,True,True
001,4,636,FALSE,0.025,TRUE,mask,absent,left,left,top,left,0.372858400000041,absent,0.11456969999971989,True,True
001,4,637,FALSE,0.0625,TRUE,mask,absent,left,left,top,left,0.30045609999979206,absent,0.6265226000000439,True,True
001,4,638,FALSE,0.0625,TRUE,mask,present,right,right,bottom,right,0.26668530000006285,present,0.09789990000035687,True,True
001,4,639,FALSE,0.025,TRUE,mask,absent,left,left,bottom,left,0.33049960000016654,absent,0.2438670000001366,True,True
001,4,640,FALSE,0.0125,TRUE,mask,present,right,right,bottom,right,0.3020800999997846,present,1.2833040999998957,True,True
001,4,641,FALSE,0.075,TRUE,mask,present,left,left,bottom,left,0.19107530000019324,present,0.18027610000035565,True,True
001,4,642,FALSE,0.0375,FALSE,mask,present,right,left,top,left,0.3976716000001943,present,0.4212102999999843,True,True
001,4,643,FALSE,0.0625,FALSE,mask,present,right,left,bottom,left,0.3587313999996695,present,0.13245030000007318,True,True
001,4,644,FALSE,0.0625,FALSE,mask,present,left,right,top,right,0.3031588999997439,present,1.8360576999998557,True,True
001,4,645,FALSE,0.075,TRUE,mask,present,right,right,top,right,0.21055539999997563,present,0.11680399999977453,True,True
001,4,646,FALSE,0.0625,TRUE,mask,present,right,right,bottom,right,0.28337920000012673,present,0.0019368000002941699,True,True
001,4,647,FALSE,0.075,TRUE,mask,present,left,left,top,left,0.26401010000017777,present,0.33772429999999076,True,True
001,4,648,FALSE,0.025,TRUE,mask,present,right,right,top,right,0.31679299999996147,absent,0.40134530000023005,True,False
001,4,649,FALSE,0.0375,FALSE,mask,present,left,right,top,right,0.3833568000000014,present,0.8492310999999972,True,True
001,4,650,FALSE,0.0375,FALSE,mask,absent,left,right,bottom,right,0.29134920000024067,absent,0.1330798999997569,True,True
001,4,651,FALSE,0.025,FALSE,mask,present,left,right,bottom,right,0.28423479999992196,present,0.11485709999988103,True,True
001,4,652,FALSE,0.05,FALSE,mask,present,left,right,top,right,0.3125169999998434,present,0.08497309999984282,True,True
001,4,653,FALSE,0.075,FALSE,mask,present,right,left,bottom,right,0.27654809999967256,present,0.2122199999998884,False,True
001,4,654,FALSE,0.0375,TRUE,mask,present,left,left,bottom,left,0.27242670000032376,present,0.5009890999999698,True,True
001,4,655,FALSE,0.025,TRUE,mask,present,right,right,top,right,0.24585449999995035,present,0.2892351000000417,True,True
001,4,656,FALSE,0.025,FALSE,mask,absent,left,right,top,right,0.29742850000002363,absent,0.08349219999990964,True,True
001,4,657,FALSE,0.025,FALSE,mask,present,left,right,bottom,right,0.3592259000001832,present,2.1634829999998146,True,True
001,4,658,FALSE,0.0375,FALSE,mask,present,right,left,bottom,left,0.360263500000201,present,0.388813300000038,True,True
001,4,659,FALSE,0.0125,TRUE,mask,absent,left,left,bottom,left,0.30598179999969943,absent,0.0656963999999789,True,True
001,4,660,FALSE,0.05,FALSE,mask,absent,left,right,bottom,right,0.2809370999998464,absent,0.09966120000035517,True,True
001,4,661,FALSE,0.05,TRUE,mask,absent,left,left,bottom,left,0.3052106999998614,absent,0.05310190000000148,True,True
001,4,662,FALSE,0.0375,TRUE,mask,absent,left,left,bottom,left,0.2536512000001494,absent,0.6376312000002144,True,True
001,4,663,FALSE,0.05,TRUE,mask,present,left,left,bottom,left,0.2631341999999677,present,0.06934960000035062,True,True
001,4,664,FALSE,0.025,TRUE,mask,present,left,left,top,left,0.33519810000007055,absent,0.11737230000017007,True,False
001,4,665,FALSE,0.025,FALSE,mask,present,right,left,top,left,0.29770549999966534,absent,0.20694129999992583,True,False
001,4,666,FALSE,0.025,TRUE,mask,present,right,right,bottom,right,0.2857171999999082,absent,0.6932142000000567,True,False
001,4,667,FALSE,0.0625,FALSE,mask,absent,left,right,top,right,0.25685859999975946,absent,0.06859819999999672,True,True
001,4,668,FALSE,0.0375,FALSE,mask,present,left,right,bottom,right,0.37349360000007437,present,0.2452146000000539,True,True
001,4,669,FALSE,0.025,FALSE,mask,absent,left,right,bottom,right,0.26508929999999964,absent,0.020504500000242842,True,True
001,4,670,FALSE,0.0625,FALSE,mask,present,right,left,top,left,0.4255201000000852,present,0.49778250000008484,True,True
001,4,671,FALSE,0.0125,FALSE,mask,present,right,left,bottom,left,0.2599617999999282,present,0.17756310000004305,True,True
001,4,672,FALSE,0.0125,TRUE,mask,present,right,right,top,right,0.38025969999989684,absent,0.30696350000016537,True,False
001,4,673,FALSE,0.0625,FALSE,mask,absent,left,right,bottom,right,0.26844130000017685,absent,1.2433485999999903,True,True
001,4,674,FALSE,0.0625,FALSE,mask,absent,left,right,bottom,right,0.2693816999999399,absent,0.18133840000018608,True,True
001,4,675,FALSE,0.0625,FALSE,mask,present,left,right,bottom,right,0.35154019999981756,present,0.0021001000000069325,True,True
001,4,676,FALSE,0.025,FALSE,mask,absent,left,right,bottom,right,0.26787530000001425,absent,0.6038249000002907,True,True
001,4,677,FALSE,0.025,FALSE,mask,present,right,left,bottom,left,0.3544712000002619,present,0.43707580000000235,True,True
001,4,678,FALSE,0.0125,FALSE,mask,present,right,left,bottom,left,0.2290275999998812,absent,0.5006163000002744,True,False
001,4,679,FALSE,0.0375,TRUE,mask,present,left,left,top,left,0.3478353000000425,present,0.19383860000016284,True,True
001,4,680,FALSE,0.0375,TRUE,mask,present,left,left,bottom,left,0.2130536999998185,present,0.05195430000003398,True,True
001,4,681,FALSE,0.075,FALSE,mask,present,left,right,top,right,0.5440082000000075,absent,0.3728843000003508,True,False
001,4,682,FALSE,0.0125,FALSE,mask,absent,left,right,top,right,0.4939155999995819,absent,0.195446599999741,True,True
001,4,683,FALSE,0.0125,TRUE,mask,absent,left,left,top,left,0.37317490000032194,absent,0.14755360000026485,True,True
001,4,684,FALSE,0.05,FALSE,mask,present,right,left,top,left,0.5152513000002727,present,0.33997029999954975,True,True
001,4,685,FALSE,0.0625,TRUE,mask,absent,left,left,top,left,0.28982330000008005,absent,0.6435541999999259,True,True
001,4,686,FALSE,0.05,TRUE,mask,present,right,right,top,right,0.3323702000002413,present,0.42042029999993247,True,True
001,4,687,FALSE,0.0125,TRUE,mask,absent,left,left,bottom,left,0.29182670000000144,absent,0.2288434000001871,True,True
001,4,688,FALSE,0.0625,TRUE,mask,present,left,left,bottom,left,0.27799300000015137,present,0.17961109999987457,True,True
001,4,689,FALSE,0.0625,FALSE,mask,absent,left,right,top,right,0.33002810000016325,absent,0.6903744999999617,True,True
001,4,690,FALSE,0.05,TRUE,mask,present,left,left,top,left,0.26585660000000644,present,0.06663980000030278,True,True
001,4,691,FALSE,0.05,FALSE,mask,present,right,left,bottom,left,0.42845870000019204,present,0.739351600000191,True,True
001,4,692,FALSE,0.0375,TRUE,mask,present,right,right,top,right,0.30650729999979376,present,0.6275481000002401,True,True
001,4,693,FALSE,0.0625,TRUE,mask,present,left,left,bottom,left,0.20899469999994835,present,0.05299200000035853,True,True
001,4,694,FALSE,0.025,TRUE,mask,present,right,right,bottom,right,0.3397451999999248,absent,0.5807562999998481,True,False
001,4,695,FALSE,0.075,TRUE,mask,absent,left,left,bottom,left,0.31890900000007605,absent,0.002805199999784236,True,True
001,4,696,FALSE,0.0375,TRUE,mask,present,left,left,top,left,0.30201809999971374,present,0.40259930000001987,True,True
001,4,697,FALSE,0.05,TRUE,mask,absent,left,left,bottom,left,0.3301400999998805,absent,0.05249259999982314,True,True
001,4,698,FALSE,0.075,FALSE,mask,absent,left,right,top,right,0.33721349999996164,absent,0.1804456999998365,True,True
001,4,699,FALSE,0.075,TRUE,mask,present,left,left,top,left,0.29976799999985815,present,0.03655290000006062,True,True
001,4,700,FALSE,0.0125,FALSE,mask,present,right,left,top,left,0.26127520000000004,present,0.5812593000000561,True,True
001,4,701,FALSE,0.025,FALSE,mask,present,left,right,top,left,0.23026879999997618,present,0.505444400000215,False,True
001,4,702,FALSE,0.05,FALSE,mask,present,right,left,bottom,left,0.40888989999984915,present,0.24183640000001105,True,True
001,4,703,FALSE,0.075,FALSE,mask,present,right,left,bottom,left,0.34252799999967465,present,0.16424890000007508,True,True
001,4,704,FALSE,0.05,TRUE,mask,present,left,left,bottom,left,0.21879820000003747,present,0.06742299999996249,True,True
001,4,705,FALSE,0.0125,TRUE,mask,present,left,left,top,left,0.291458799999873,absent,0.14918870000019524,True,False
001,4,706,FALSE,0.0125,FALSE,mask,present,left,right,bottom,right,0.3623939999997674,absent,0.09777189999977054,True,False
001,4,707,FALSE,0.025,TRUE,mask,absent,left,left,top,left,0.24900269999989177,absent,0.14840239999966798,True,True
001,4,708,FALSE,0.05,FALSE,mask,absent,left,right,top,left,0.22789759999977832,absent,0.3189637999998922,False,True
001,4,709,FALSE,0.0125,TRUE,mask,absent,left,left,top,left,0.3578210000000581,present,0.755601200000001,True,False
001,4,710,FALSE,0.05,FALSE,mask,present,left,right,bottom,right,0.4090160000000651,present,0.8345635000000584,True,True
001,4,711,FALSE,0.075,TRUE,mask,present,right,right,top,right,0.2558659000001171,present,0.2596386000000166,True,True
001,4,712,FALSE,0.0625,TRUE,mask,absent,left,left,bottom,left,0.2774561999999605,absent,0.06768670000019483,True,True
001,4,713,FALSE,0.05,TRUE,mask,absent,left,left,top,left,0.3271685000004254,absent,0.9636576000002606,True,True
001,4,714,FALSE,0.075,FALSE,mask,present,left,right,bottom,right,0.3393079999996189,present,0.05096529999991617,True,True
001,4,715,FALSE,0.05,FALSE,mask,present,left,right,top,right,0.38845209999999497,present,0.05026090000001204,True,True
001,4,716,FALSE,0.0625,FALSE,mask,present,right,left,bottom,left,0.3398131999997531,present,0.051540099999783706,True,True
001,4,717,FALSE,0.0375,TRUE,mask,absent,left,left,top,left,0.39731849999998303,absent,1.250835399999687,True,True
001,4,718,FALSE,0.025,FALSE,mask,present,right,left,top,left,0.3799159000000145,present,0.004172800000105781,True,True
001,4,719,FALSE,0.0375,FALSE,mask,present,left,right,bottom,right,0.44452179999962027,present,0.46523709999974017,True,True
001,4,720,FALSE,0.0375,TRUE,mask,absent,left,left,top,left,0.44857239999964804,absent,0.1481112999999823,True,True
001,4,721,FALSE,0.025,FALSE,mask,absent,left,right,top,right,0.4056114999998499,absent,0.6935088000000178,True,True
001,4,722,FALSE,0.075,TRUE,mask,present,right,right,bottom,right,0.4789314999998169,present,0.1141658000001371,True,True
001,4,723,FALSE,0.0625,TRUE,mask,present,right,right,top,right,0.22437909999962358,present,0.4963557999999466,True,True
001,4,724,FALSE,0.075,TRUE,mask,absent,left,left,bottom,left,0.27120719999993526,present,1.1250809000002846,True,False
001,4,725,FALSE,0.0625,FALSE,mask,present,left,right,top,right,0.3776977000002262,present,2.308591299999989,True,True
001,4,726,FALSE,0.05,TRUE,mask,present,right,right,top,right,0.21501760000001013,present,0.06910490000018399,True,True
001,4,727,FALSE,0.05,FALSE,mask,absent,left,right,bottom,right,0.2981730999999854,absent,1.0931106000002728,True,True
001,4,728,FALSE,0.0625,FALSE,mask,present,right,left,top,right,0.19912269999986165,present,0.23698500000000422,False,True
001,4,729,FALSE,0.05,TRUE,mask,present,right,right,bottom,right,0.3118514999996478,absent,0.004954500000167172,True,False
001,4,730,FALSE,0.0375,FALSE,mask,present,right,left,bottom,left,3.0899248999999145,present,0.6121330000000853,True,True
001,4,731,FALSE,0.075,FALSE,mask,present,right,left,top,left,0.4584568999998737,present,0.2741820999999618,True,True
001,4,732,FALSE,0.0125,FALSE,mask,present,left,right,top,right,0.3970613000001322,present,0.6277810999999929,True,True
001,4,733,FALSE,0.0375,FALSE,mask,present,left,right,top,right,0.3343313999998827,present,0.09916129999965051,True,True
001,4,734,FALSE,0.0125,FALSE,mask,present,left,right,top,right,0.28157129999999597,absent,0.3340421000002607,True,False
001,4,735,FALSE,0.0375,FALSE,mask,absent,left,right,top,right,0.4715224000001399,absent,0.2762991000004149,True,True
001,4,736,FALSE,0.0375,FALSE,mask,absent,left,right,bottom,right,0.3438709000001836,absent,0.5147067000002608,True,True
001,4,737,FALSE,0.0125,FALSE,mask,absent,left,right,bottom,right,0.26300319999973,absent,0.6798589999998512,True,True
001,4,738,FALSE,0.05,TRUE,mask,present,left,left,top,left,0.5349790000000212,present,0.43352690000028815,True,True
001,4,739,FALSE,0.0125,FALSE,mask,present,right,left,top,left,0.379618500000106,present,0.7379442000001291,True,True
001,4,740,FALSE,0.0375,TRUE,mask,present,right,right,bottom,right,0.24874959999988278,present,0.1168152000000191,True,True
001,4,741,FALSE,0.0125,FALSE,mask,absent,left,right,top,right,0.38688749999982974,absent,0.27704270000003817,True,True
001,4,742,FALSE,0.05,FALSE,mask,present,right,left,top,left,0.017932400000063353,present,0.13204199999972843,True,True
001,4,743,FALSE,0.025,FALSE,mask,present,right,left,bottom,left,0.4034969999997884,present,0.05065409999997428,True,True
001,4,744,FALSE,0.0625,TRUE,mask,absent,left,left,bottom,left,0.3277738000001591,absent,0.29210299999976996,True,True
001,5,745,FALSE,0.05,FALSE,mask,present,right,left,bottom,left,0.2577842000000601,present,0.6751232999999957,True,True
001,5,746,FALSE,0.05,TRUE,mask,present,right,right,top,right,0.29509409999991476,present,0.4053465000001779,True,True
001,5,747,FALSE,0.0125,FALSE,mask,present,right,left,top,left,0.30715169999984937,absent,0.2633744999998271,True,False
001,5,748,FALSE,0.075,TRUE,mask,present,left,left,top,left,0.12950580000006084,present,0.228897699999834,True,True
001,5,749,FALSE,0.0375,TRUE,mask,present,left,left,top,left,0.23352350000004662,present,0.22616040000002613,True,True
001,5,750,FALSE,0.0625,FALSE,mask,absent,left,right,bottom,right,0.3586291000001438,absent,0.24393610000015542,True,True
001,5,751,FALSE,0.075,TRUE,mask,present,right,right,bottom,right,0.20679289999998218,present,0.1972035999997388,True,True
001,5,752,FALSE,0.025,FALSE,mask,present,left,right,top,right,0.2739257000002908,present,0.24165129999983037,True,True
001,5,753,FALSE,0.0625,TRUE,mask,absent,left,left,top,left,0.30775809999977355,absent,0.2998544000001857,True,True
001,5,754,FALSE,0.05,FALSE,mask,present,left,right,top,right,0.323415599999862,present,0.5005200000000514,True,True
001,5,755,FALSE,0.0375,TRUE,mask,present,right,right,top,right,0.25649550000025556,present,0.05288449999989098,True,True
001,5,756,FALSE,0.025,TRUE,mask,absent,left,left,bottom,left,0.46575659999962227,absent,0.2923077000000376,True,True
001,5,757,FALSE,0.075,FALSE,mask,present,right,left,top,left,0.1813637000000199,present,0.3054533999998057,True,True
001,5,758,FALSE,0.025,FALSE,mask,present,right,left,bottom,left,0.41689769999993587,absent,0.24615140000014435,True,False
001,5,759,FALSE,0.075,FALSE,mask,present,left,right,bottom,right,0.42241630000035,present,0.5474613000001227,True,True
001,5,760,FALSE,0.025,TRUE,mask,present,right,right,top,right,0.2957648000001427,absent,0.2930522999999994,True,False
001,5,761,FALSE,0.0375,FALSE,mask,present,right,left,top,left,0.9298730000000432,present,0.38937639999994644,True,True
001,5,762,FALSE,0.05,TRUE,mask,absent,left,left,top,left,0.3720208999998249,absent,0.27242370000021765,True,True
001,5,763,FALSE,0.0625,TRUE,mask,present,right,right,top,right,0.30495669999982056,present,0.13141499999983353,True,True
001,5,764,FALSE,0.025,FALSE,mask,present,left,right,bottom,right,0.393963900000017,absent,1.281612700000096,True,False
001,5,765,FALSE,0.0375,FALSE,mask,present,right,left,top,left,0.2122455999997328,present,0.5004622000001291,True,True
001,5,766,FALSE,0.0625,TRUE,mask,absent,left,left,bottom,left,0.35452269999996133,absent,0.4401072999999087,True,True
001,5,767,FALSE,0.0625,TRUE,mask,present,left,left,top,left,0.22648839999965276,present,0.1146401999999398,True,True
001,5,768,FALSE,0.025,TRUE,mask,present,left,left,bottom,left,0.25552609999976994,present,0.08254329999999754,True,True
001,5,769,FALSE,0.0125,FALSE,mask,absent,left,right,bottom,right,0.3714225000003353,absent,0.3143399999999019,True,True
001,5,770,FALSE,0.0125,FALSE,mask,present,right,left,bottom,left,0.01916879999998855,present,0.10044520000019475,True,True
001,5,771,FALSE,0.025,FALSE,mask,present,right,left,top,left,0.3942352000003666,present,0.24173330000030546,True,True
001,5,772,FALSE,0.0625,FALSE,mask,present,left,right,bottom,right,0.3994078000000627,present,0.7053249000000505,True,True
001,5,773,FALSE,0.0625,FALSE,mask,present,right,left,bottom,right,0.20079070000019783,present,0.21779379999998127,False,True
001,5,774,FALSE,0.0625,TRUE,mask,present,right,right,top,right,0.4971943000000465,absent,0.4296852000002218,True,False
001,5,775,FALSE,0.0375,FALSE,mask,present,right,left,bottom,left,1.7485639000001356,present,0.3071333000002596,True,True
001,5,776,FALSE,0.0375,TRUE,mask,absent,left,left,bottom,left,0.3609031999999388,present,0.06737249999969208,True,False
001,5,777,FALSE,0.0375,FALSE,mask,present,left,right,top,right,0.4165301000002728,present,0.41732569999976477,True,True
001,5,778,TRUE,0.0125,FALSE,mask,present,left,right,top,None,None,None,None,None,None
001,5,779,FALSE,0.075,FALSE,mask,present,right,left,bottom,left,0.3194805000002816,present,0.5133688000000802,True,True
001,5,780,FALSE,0.05,FALSE,mask,present,left,right,top,right,0.3493855000001531,present,0.545943100000386,True,True
001,5,781,FALSE,0.075,TRUE,mask,absent,left,left,bottom,left,0.4563444000000345,absent,0.2944624000001568,True,True
001,5,782,FALSE,0.0375,FALSE,mask,absent,left,right,top,right,0.310911600000054,absent,0.03599480000002586,True,True
001,5,783,FALSE,0.025,FALSE,mask,present,right,left,bottom,left,0.004481199999645469,absent,0.3711820999997144,True,False
001,5,784,FALSE,0.05,FALSE,mask,present,right,left,top,right,0.27277479999975185,present,2.4637800999998944,False,True
001,5,785,FALSE,0.025,FALSE,mask,present,left,right,bottom,right,0.5047083999997994,absent,0.2575913999999102,True,False
001,5,786,TRUE,0.05,FALSE,mask,present,left,right,bottom,None,None,None,None,None,None
001,5,787,FALSE,0.075,TRUE,mask,absent,left,left,top,left,1.043083800000204,absent,0.33954910000011296,True,True
001,5,788,FALSE,0.0125,FALSE,mask,present,left,right,top,right,0.32678390000000945,present,1.1869870000000446,True,True
001,5,789,FALSE,0.075,FALSE,mask,present,right,left,bottom,right,0.2651810000002115,present,0.36996659999977055,False,True
001,5,790,FALSE,0.0375,TRUE,mask,absent,left,left,top,left,0.377167499999814,absent,0.3782172000001083,True,True
001,5,791,FALSE,0.05,TRUE,mask,present,left,left,top,right,0.5877571000000898,present,0.5622222999995756,False,True
001,5,792,TRUE,0.025,TRUE,mask,present,left,left,top,None,None,None,None,None,None
001,5,793,FALSE,0.075,TRUE,mask,present,right,right,bottom,right,0.26564730000018244,present,1.4416100000003098,True,True
001,5,794,FALSE,0.0375,TRUE,mask,present,left,left,bottom,left,0.6995532999999341,present,0.2289107999999942,True,True
001,5,795,FALSE,0.025,TRUE,mask,present,left,left,bottom,left,0.22934489999988728,present,0.11618870000029347,True,True
001,5,796,FALSE,0.025,TRUE,mask,absent,left,left,bottom,left,0.22100430000000415,absent,0.22421970000004876,True,True
001,5,797,FALSE,0.025,FALSE,mask,absent,left,right,top,right,0.32062809999979436,absent,0.13130120000005263,True,True
001,5,798,FALSE,0.075,TRUE,mask,present,right,right,top,right,0.2554909000000407,present,0.11520000000018626,True,True
001,5,799,FALSE,0.05,TRUE,mask,present,left,left,top,left,0.11525979999987612,absent,0.2517797000000428,True,False
001,5,800,TRUE,0.0125,FALSE,mask,present,left,right,top,None,None,None,None,None,None
001,5,801,FALSE,0.025,TRUE,mask,absent,left,left,top,left,1.389421499999571,absent,0.33711300000004485,True,True
001,5,802,FALSE,0.0375,TRUE,mask,present,right,right,top,right,0.283520800000133,present,0.274690499999906,True,True
001,5,803,FALSE,0.025,TRUE,mask,present,left,left,top,left,0.9135193000001891,present,0.4361397000002398,True,True
001,5,804,FALSE,0.025,FALSE,mask,present,right,left,top,left,0.2599059999997735,present,0.052034899999853224,True,True
001,5,805,FALSE,0.05,TRUE,mask,present,left,left,bottom,left,0.3671072999995886,present,0.11650520000011966,True,True
001,5,806,FALSE,0.0375,TRUE,mask,present,right,right,bottom,right,0.29250160000037795,present,0.4342901999998503,True,True
001,5,807,FALSE,0.0375,FALSE,mask,present,right,left,bottom,left,0.23717850000002727,present,0.6733801999998832,True,True
001,5,808,FALSE,0.0125,FALSE,mask,present,left,right,bottom,right,0.33920030000035695,absent,0.31718899999987116,True,False
001,5,809,FALSE,0.0375,FALSE,mask,present,left,right,bottom,right,0.35867970000026617,present,1.6030310999999529,True,True
001,5,810,FALSE,0.0625,FALSE,mask,present,right,left,top,left,0.1789043999997375,present,0.08127239999976155,True,True
001,5,811,FALSE,0.05,TRUE,mask,absent,left,left,top,left,0.33375089999981356,absent,0.2603331000000253,True,True
001,5,812,FALSE,0.025,TRUE,mask,present,right,right,bottom,right,0.2844006000000263,present,0.2265042999997604,True,True
001,5,813,FALSE,0.0125,TRUE,mask,absent,left,left,top,left,0.0972077999999783,absent,0.28736739999976635,True,True
001,5,814,FALSE,0.05,FALSE,mask,absent,left,right,bottom,right,0.2839926000001469,absent,1.443279000000075,True,True
001,5,815,FALSE,0.025,TRUE,mask,present,right,right,bottom,right,0.23464590000003227,present,0.16318100000034974,True,True
001,5,816,FALSE,0.025,FALSE,mask,absent,left,right,bottom,right,0.2703974000000926,absent,0.1938940999998522,True,True
001,5,817,FALSE,0.0375,TRUE,mask,present,left,left,top,left,0.04963229999975738,present,0.21093229999996765,True,True
001,5,818,FALSE,0.0125,TRUE,mask,present,right,right,bottom,right,0.36297849999982645,absent,0.32313120000026174,True,False
001,5,819,FALSE,0.0625,FALSE,mask,present,right,left,top,left,1.5390379999998913,present,0.6447818999999981,True,True
001,5,820,FALSE,0.0125,TRUE,mask,present,right,right,top,right,0.4441188000000693,absent,0.41323049999982686,True,False
001,5,821,FALSE,0.0625,TRUE,mask,absent,left,left,top,left,0.051679799999874376,absent,0.28442820000009306,True,True
001,5,822,FALSE,0.05,FALSE,mask,present,right,left,bottom,right,0.2572581999997965,present,1.048851300000024,False,True
001,5,823,FALSE,0.0375,TRUE,mask,present,left,left,bottom,left,0.525016599999617,present,0.5801701999998841,True,True
001,5,824,FALSE,0.05,TRUE,mask,absent,left,left,bottom,left,0.3543315000001712,absent,0.27167839999992793,True,True
001,5,825,FALSE,0.0625,TRUE,mask,present,left,left,bottom,left,0.4848954000003687,present,0.21146429999998873,True,True
001,5,826,FALSE,0.0125,FALSE,mask,present,right,left,top,left,0.25772330000017973,present,0.3542842000001656,True,True
001,5,827,FALSE,0.0125,FALSE,mask,absent,left,right,bottom,right,0.4209622000003037,absent,0.3238464999999451,True,True
001,5,828,FALSE,0.05,TRUE,mask,present,right,right,top,right,0.25902959999984887,present,0.11592640000026222,True,True
001,5,829,FALSE,0.0625,TRUE,mask,absent,left,left,bottom,left,0.08264239999971323,absent,0.319315799999913,True,True
001,5,830,FALSE,0.0125,TRUE,mask,absent,left,left,top,left,0.5952554999998938,absent,0.28253640000002633,True,True
001,5,831,FALSE,0.05,FALSE,mask,absent,left,right,top,right,0.30512280000039027,absent,0.7399211000001742,True,True
001,5,832,FALSE,0.025,FALSE,mask,present,left,right,top,right,0.36999439999999595,present,0.14767239999991943,True,True
001,5,833,FALSE,0.0625,TRUE,mask,present,right,right,bottom,right,0.26773259999981747,present,0.018288599999777944,True,True
001,5,834,FALSE,0.0125,TRUE,mask,present,left,left,bottom,left,0.7387931999996908,present,1.444089300000087,True,True
001,5,835,FALSE,0.0625,TRUE,mask,present,left,left,bottom,left,0.2945291000000907,present,0.22521450000022014,True,True
001,5,836,FALSE,0.05,TRUE,mask,present,left,left,bottom,left,0.23306749999983367,present,0.2733176000001549,True,True
001,5,837,FALSE,0.05,TRUE,mask,absent,left,left,bottom,right,0.5833769000000757,absent,0.6633197999999538,False,True
001,5,838,FALSE,0.025,FALSE,mask,absent,left,right,bottom,right,0.4034969999997884,absent,0.43049139999993713,True,True
001,5,839,FALSE,0.0625,FALSE,mask,absent,left,right,top,right,0.3205594999999448,absent,0.740726800000175,True,True
001,5,840,TRUE,0.0125,FALSE,mask,present,left,right,top,None,None,None,None,None,None
001,5,841,FALSE,0.025,FALSE,mask,absent,left,right,top,right,0.28914069999973435,absent,0.2575772999998662,True,True
001,5,842,FALSE,0.075,FALSE,mask,absent,left,right,top,right,0.3738495000002331,absent,0.19552269999985583,True,True
001,5,843,FALSE,0.05,TRUE,mask,present,right,right,bottom,right,0.1904610000001412,present,0.46470499999986714,True,True
001,5,844,FALSE,0.075,FALSE,mask,present,left,right,bottom,left,0.5491354000000683,present,1.07767849999982,False,True
001,5,845,FALSE,0.0625,FALSE,mask,absent,left,right,top,right,0.27718119999963164,absent,0.18170029999964754,True,True
001,5,846,FALSE,0.075,FALSE,mask,absent,left,right,bottom,right,0.2828266999999869,absent,0.16502300000001924,True,True
001,5,847,FALSE,0.0125,TRUE,mask,absent,left,left,bottom,left,0.017638199999964854,absent,0.2528698999999506,True,True
001,5,848,FALSE,0.05,FALSE,mask,absent,left,right,top,right,0.28089760000011665,absent,1.122765999999956,True,True
001,5,849,FALSE,0.075,TRUE,mask,absent,left,left,bottom,left,1.0116029999999228,absent,0.4206945999999334,True,True
